Zeit t / s,Spannung U_A1 / V,Spannung U_B1 / V
0,-0.0195,-0.0185
0.101,-0.0195,-0.0175
0.199,-0.02,-0.018
0.3,-0.02,-0.018
0.4,-0.02,-0.0175
0.5,-0.02,-0.018
0.599,-0.02,-0.0175
0.699,-0.02,-0.0175
0.8,-0.02,-0.0175
0.9,-0.0195,-0.017
1,-0.02,-0.0175
1.099,-0.02,-0.0175
1.2,-0.0195,-0.0175
1.3,-0.0195,-0.017
1.401,-0.0195,-0.0175
1.5,-0.02,-0.0175
1.6,-0.02,-0.0175
1.7,-0.0195,-0.017
1.8,-0.02,-0.0175
1.899,-0.02,-0.0175
2.001,-0.0195,-0.0175
2.1,-0.0195,-0.0175
2.201,-0.02,-0.0175
2.3,-0.02,-0.018
2.4,-0.0195,-0.0175
2.5,-0.0195,-0.017
2.6,-0.02,-0.0175
2.701,-0.0195,-0.017
2.8,-0.0195,-0.017
2.901,-0.0195,-0.016
3,-0.0195,-0.0175
3.1,-0.0195,-0.0175
3.2,-0.0195,-0.0185
3.3,-0.02,-0.019
3.401,-0.0195,-0.019
3.5,-0.0195,-0.019
3.6,-0.0195,-0.019
3.7,-0.0195,-0.0185
3.799,-0.0195,-0.0175
3.899,-0.0195,-0.016
4,-0.0195,-0.022
4.099,-0.02,-0.0215
4.199,-0.02,-0.02
4.3,-0.02,-0.0185
4.401,-0.0195,-0.017
4.499,-0.02,-0.0135
4.6,-0.0195,-0.0135
4.7,-0.0195,-0.014
4.799,-0.0195,-0.014
4.9,-0.02,-0.0165
5.001,-0.0195,-0.017
5.099,-0.0195,-0.0185
5.2,-0.019,-0.019
5.3,-0.019,-0.019
5.399,-0.0195,-0.0185
5.5,-0.019,-0.018
5.599,-0.019,-0.0175
5.7,-0.018,-0.017
5.799,-0.0185,-0.013
5.899,-0.018,-0.012
6,-0.0175,-0.0085
6.1,-0.016,-0.0045
6.2,-0.0135,-0.0075
6.299,-0.011,-0.005
6.399,-0.0085,-0.0045
6.5,-0.0055,-0.007
6.6,-0.0025,-0.002
6.699,0,-0.0065
6.8,0.0025,-0.002
6.9,0.0055,-0.005
7,0.007,-0.005
7.1,0.01,-0.004
7.199,0.013,-0.004
7.3,0.017,-0.005
7.399,0.02,-0.0065
7.499,0.024,-0.006
7.6,0.0285,-0.0045
7.7,0.034,-0.007
7.799,0.0435,-0.0025
7.899,0.0535,-0.011
8,0.065,-0.008
8.099,0.079,-0.0035
8.2,0.093,-0.007
8.3,0.1065,-0.009
8.399,0.119,-0.0065
8.5,0.1295,-0.0085
8.6,0.138,-0.011
8.699,0.146,-0.0045
8.8,0.1545,-0.013
8.9,0.163,-0.01
8.999,0.169,-0.006
9.1,0.1775,-0.009
9.199,0.1815,-0.007
9.301,0.1855,-0.014
9.4,0.187,-0.0045
9.5,0.189,-0.0075
9.599,0.19,-0.0035
9.699,0.191,-0.0115
9.799,0.1915,-0.008
9.9,0.1925,-0.0095
10,0.1925,-0.0085
10.1,0.1925,-0.008
10.201,0.1925,-0.0075
10.3,0.193,-0.009
10.4,0.193,-0.0085
10.5,0.193,-0.0085
10.6,0.193,-0.008
10.699,0.193,-0.0085
10.8,0.193,-0.008
10.899,0.193,-0.0085
11,0.193,-0.0075
11.1,0.193,-0.0085
11.199,0.193,-0.0085
11.299,0.193,-0.008
11.4,0.193,-0.0085
11.5,0.1935,-0.0095
11.6,0.1935,-0.0095
11.699,0.193,-0.008
11.799,0.193,-0.0085
11.899,0.1935,-0.0085
12,0.1935,-0.0095
12.1,0.1935,-0.009
12.199,0.1935,-0.009
12.3,0.1935,-0.01
12.399,0.1935,-0.009
12.501,0.191,-0.01185
12.6,0.1935,-0.01035
12.7,0.193,-0.00975
12.8,0.1935,-0.0093
12.9,0.193,-0.01035
13,0.1945,-0.01005
13.1,0.1935,-0.0102
13.2,0.193,-0.0102
13.301,0.194,-0.01005
13.399,0.1935,-0.0096
13.5,0.1935,-0.0102
13.599,0.1935,-0.00945
13.7,0.1935,-0.01035
13.8,0.1945,-0.01035
13.901,0.194,-0.0105
13.999,0.193,-0.00885
14.1,0.1935,-0.00945
14.199,0.1935,-0.00945
14.3,0.1935,-0.0096
14.399,0.1935,-0.0096
14.5,0.194,-0.0105
14.6,0.1935,-0.0099
14.7,0.1935,-0.0099
14.8,0.194,-0.01065
14.9,0.194,-0.0108
15,0.1935,-0.0099
15.1,0.194,-0.01065
15.199,0.193,-0.009
15.299,0.1935,-0.01005
15.401,0.1935,-0.01185
15.499,0.1935,-0.0102
15.599,0.1935,-0.01005
15.701,0.194,-0.0108
15.8,0.194,-0.01095
15.9,0.1935,-0.01035
16,0.1935,-0.0102
16.099,0.1935,-0.0105
16.201,0.1935,-0.0108
16.3,0.1935,-0.0102
16.4,0.1935,-0.0102
16.5,0.1935,-0.01095
16.6,0.194,-0.01095
16.7,0.194,-0.0102
16.8,0.1935,-0.01095
16.9,0.1935,-0.0102
16.999,0.193,-0.0093
17.099,0.193,-0.0093
17.2,0.194,-0.01095
17.3,0.194,-0.01035
17.4,0.194,-0.0105
17.5,0.193,-0.0105
17.6,0.1935,-0.0111
17.701,0.1935,-0.012
17.799,0.194,-0.0102
17.899,0.1945,-0.0102
18.001,0.194,-0.0111
18.099,0.1945,-0.01035
18.2,0.194,-0.0102
18.3,0.1945,-0.01035
18.399,0.1935,-0.0093
18.499,0.193,-0.00945
18.599,0.1935,-0.0105
18.7,0.1945,-0.01035
18.8,0.193,-0.01035
18.9,0.194,-0.01035
19.001,0.1935,-0.0123
19.1,0.194,-0.01095
19.201,0.194,-0.0111
19.299,0.193,-0.00945
19.399,0.1935,-0.0093
19.5,0.194,-0.0105
19.599,0.1945,-0.0105
19.699,0.1945,-0.01035
19.801,0.194,-0.0126
19.899,0.1935,-0.00975
19.999,0.193,-0.0105
20.1,0.194,-0.01125
20.2,0.1945,-0.01065
20.3,0.1935,-0.01065
20.4,0.1945,-0.0108
20.499,0.1935,-0.00975
20.599,0.1945,-0.01065
20.7,0.1945,-0.01215
20.799,0.1935,-0.0108
20.9,0.1935,-0.0108
21,0.194,-0.01125
21.1,0.194,-0.01125
21.2,0.194,-0.0111
21.299,0.1935,-0.0102
21.401,0.1935,-0.01215
21.5,0.194,-0.01095
21.599,0.193,-0.01065
21.701,0.194,-0.0111
21.799,0.194,-0.01065
21.9,0.194,-0.0111
22,0.1945,-0.0105
22.099,0.1935,-0.00975
22.201,0.194,-0.0111
22.3,0.194,-0.01125
22.399,0.1945,-0.01035
22.5,0.1945,-0.0105
22.599,0.1935,-0.0105
22.699,0.1945,-0.0105
22.801,0.194,-0.01125
22.9,0.194,-0.0111
23,0.1945,-0.0108
23.1,0.194,-0.01125
23.199,0.1945,-0.01065
23.301,0.194,-0.01125
23.399,0.1935,-0.0105
23.499,0.1945,-0.01065
23.6,0.194,-0.0111
23.699,0.1935,-0.01065
23.8,0.194,-0.01125
23.901,0.1935,-0.01215
23.999,0.193,-0.0105
24.099,0.1935,-0.01215
24.2,0.194,-0.0111
24.299,0.194,-0.01035
24.4,0.194,-0.0111
24.5,0.194,-0.0111
24.6,0.194,-0.0102
24.699,0.1935,-0.00945
24.799,0.1935,-0.0093
24.899,0.1945,-0.01035
24.999,0.193,-0.01035
25.1,0.194,-0.01035
25.199,0.1945,-0.01035
25.299,0.194,-0.0102
25.4,0.194,-0.0111
25.499,0.194,-0.01035
25.6,0.194,-0.0111
25.7,0.1945,-0.01035
25.799,0.1935,-0.0102
25.9,0.194,-0.0102
26,0.1945,-0.01035
26.1,0.1945,-0.01035
26.199,0.193,-0.0102
26.3,0.194,-0.01095
26.401,0.194,-0.01095
26.501,0.194,-0.0111
26.6,0.193,-0.01065
26.701,0.194,-0.01095
26.8,0.194,-0.01125
26.9,0.194,-0.0111
26.999,0.194,-0.01065
27.1,0.194,-0.0111
27.199,0.1945,-0.0105
27.3,0.1945,-0.0111
27.4,0.1935,-0.01065
27.5,0.1945,-0.01065
27.6,0.193,-0.0105
27.699,0.1935,-0.00975
27.8,0.193,-0.0105
27.9,0.1935,-0.01035
27.999,0.1935,-0.0096
28.1,0.194,-0.012
28.2,0.1935,-0.01095
28.299,0.193,-0.0105
28.4,0.1935,-0.0111
28.5,0.194,-0.0111
28.6,0.194,-0.0111
28.7,0.194,-0.0111
28.799,0.193,-0.0105
28.901,0.1935,-0.01095
29,0.1945,-0.0105
29.1,0.194,-0.01035
29.201,0.1935,-0.01155
29.301,0.194,-0.0111
29.4,0.1945,-0.01035
29.5,0.1945,-0.01035
29.601,0.1935,-0.01095
29.7,0.194,-0.0111
29.8,0.1945,-0.01035
29.9,0.193,-0.0105
29.999,0.193,-0.00975
30.101,0.1935,-0.0111
30.199,0.194,-0.01035
30.3,0.194,-0.01095
30.4,0.194,-0.01095
30.499,0.194,-0.0105
30.6,0.194,-0.0111
30.699,0.193,-0.01035
30.8,0.194,-0.0126
30.899,0.194,-0.0102
30.999,0.193,-0.01035
31.1,0.194,-0.01095
31.199,0.1945,-0.0105
31.3,0.194,-0.01035
31.399,0.193,-0.0099
31.501,0.1935,-0.01275
31.599,0.194,-0.0102
31.7,0.1945,-0.0105
31.8,0.194,-0.00975
31.9,0.1945,-0.0105
32,0.194,-0.01095
32.1,0.194,-0.01095
32.201,0.194,-0.0111
32.299,0.193,-0.0108
32.4,0.1935,-0.01095
32.5,0.194,-0.01125
32.6,0.194,-0.01155
32.701,0.194,-0.0108
32.8,0.194,-0.01035
32.9,0.193,-0.0102
32.999,0.193,-0.0081
33.099,0.194,-0.0096
33.2,0.194,-0.01065
33.3,0.194,-0.01035
33.399,0.1935,-0.0099
33.5,0.194,-0.0105
33.6,0.1935,-0.0105
33.7,0.1935,-0.01245
33.799,0.194,-0.0099
33.9,0.194,-0.0105
34,0.1935,-0.00975
34.099,0.1935,-0.00975
34.2,0.194,-0.01035
34.3,0.194,-0.0105
34.4,0.194,-0.0105
34.501,0.194,-0.0105
34.6,0.194,-0.0105
34.7,0.194,-0.01065
34.8,0.194,-0.0105
34.899,0.1935,-0.00975
35,0.194,-0.01065
35.1,0.1935,-0.0096
35.201,0.194,-0.01065
35.301,0.194,-0.01065
35.4,0.1935,-0.0096
35.5,0.1935,-0.0117
35.599,0.193,-0.00825
35.699,0.1935,-0.00825
35.8,0.194,-0.0105
35.899,0.1935,-0.00945
36.001,0.1935,-0.01155
36.1,0.194,-0.01035
36.201,0.194,-0.0105
36.299,0.1935,-0.00915
36.401,0.194,-0.0102
36.499,0.1935,-0.0093
36.6,0.194,-0.01035
36.7,0.1935,-0.00915
36.801,0.194,-0.0102
36.9,0.1935,-0.009
37,0.1935,-0.00885
37.099,0.1935,-0.009
37.2,0.1935,-0.009
37.3,0.1935,-0.00885
37.401,0.194,-0.01005
37.5,0.1935,-0.0087
37.599,0.1935,-0.00855
37.699,0.1935,-0.0084
37.8,0.1935,-0.00885
37.9,0.1935,-0.00945
37.999,0.1935,-0.0102
38.099,0.193,-0.0108
38.2,0.194,-0.0162
38.3,0.1935,-0.0066
38.4,0.1935,-0.00885
38.499,0.193,-0.0087
38.599,0.1935,-0.0108
38.7,0.193,-0.01095
38.8,0.1925,-0.00555
38.899,0.1925,-0.0066
38.999,0.1925,-0.00585
39.101,0.1925,-0.0129
39.2,0.1925,-0.0066
39.3,0.192,-0.00465
39.399,0.192,0.00165
39.5,0.193,-0.00675
39.599,0.192,-0.003
39.7,0.192,-0.00435
39.801,0.1925,-0.01605
39.899,0.1915,-0.00435
40.001,0.1915,-0.0087
40.1,0.1905,-0.0042
40.199,0.1895,-0.0021
40.301,0.189,-0.0105
40.399,0.188,-0.00165
40.501,0.189,-0.00735
40.6,0.1885,-0.0066
40.701,0.189,-0.0096
40.799,0.1875,-0.00855
40.9,0.188,-0.00915
40.999,0.1875,-0.0075
41.099,0.187,-0.0075
41.2,0.187,-0.00885
41.3,0.186,-0.0072
41.4,0.1865,-0.0087
41.5,0.1855,-0.0072
41.6,0.1855,-0.00855
41.701,0.185,-0.01275
41.799,0.1835,-0.00675
41.901,0.1835,-0.0081
42.001,0.1825,-0.0081
42.1,0.1815,-0.00675
42.2,0.181,-0.00675
42.3,0.18,-0.00675
42.399,0.1795,-0.0066
42.5,0.1795,-0.0078
42.601,0.1785,-0.0078
42.7,0.178,-0.00765
42.799,0.177,-0.0063
42.899,0.1765,-0.0063
43,0.176,-0.0063
43.1,0.1755,-0.00615
43.201,0.175,-0.0075
43.3,0.1745,-0.0075
43.401,0.1745,-0.00885
43.499,0.173,-0.0066
43.6,0.1725,-0.00765
43.701,0.172,-0.0078
43.8,0.1715,-0.00855
43.901,0.1715,-0.009
44,0.17,-0.00705
44.1,0.1695,-0.00495
44.2,0.1685,-0.00525
44.3,0.168,-0.00555
44.4,0.1675,-0.0072
44.5,0.1675,-0.0081
44.601,0.1665,-0.00525
44.699,0.166,0.0024
44.8,0.165,-0.0012
44.9,0.1645,-0.00165
45.001,0.1645,-0.0051
45.1,0.1635,-0.0036
45.199,0.163,-0.00345
45.3,0.1625,-0.003
45.4,0.1615,-0.0042
45.5,0.161,-0.0024
45.6,0.161,-0.00555
45.7,0.1605,-0.00615
45.8,0.1595,-0.00585
45.9,0.159,-0.0066
46.001,0.159,-0.0066
46.1,0.158,-0.00645
46.199,0.1575,-0.00525
46.3,0.1575,-0.006
46.401,0.157,-0.00585
46.5,0.157,-0.00555
46.6,0.156,-0.00555
46.7,0.1555,-0.0054
46.801,0.155,-0.0054
46.901,0.1545,-0.00555
46.999,0.154,-0.0045
47.099,0.1535,-0.0048
47.2,0.153,-0.00495
47.3,0.1525,-0.00495
47.402,0.153,-0.00825
47.501,0.152,-0.0066
47.601,0.152,-0.00645
47.699,0.1505,-0.00375
47.799,0.15,-0.0036
47.901,0.15,-0.00465
47.999,0.149,-0.00285
48.1,0.149,-0.0033
48.199,0.148,-0.00285
48.299,0.148,-0.0033
48.4,0.1475,-0.00315
48.5,0.147,-0.003
48.6,0.147,-0.0042
48.7,0.1465,-0.00315
48.8,0.1465,-0.00435
48.899,0.1455,-0.00315
49,0.1455,-0.0042
49.099,0.145,-0.00315
49.2,0.145,-0.0045
49.3,0.144,-0.0045
49.401,0.144,-0.0045
49.5,0.1435,-0.0042
49.599,0.143,-0.0033
49.701,0.143,-0.0057
49.801,0.1425,-0.00465
49.899,0.142,-0.00315
49.999,0.1415,-0.00315
50.1,0.141,-0.0048
50.201,0.141,-0.00555
50.3,0.14,-0.00315
50.4,0.1395,-0.0033
50.5,0.1395,-0.0048
50.601,0.1395,-0.00585
50.7,0.1385,-0.00315
50.8,0.1385,-0.00315
50.9,0.138,-0.00315
51,0.138,-0.00405
51.1,0.1375,-0.0033
51.2,0.137,-0.0033
51.299,0.1365,-0.00315
51.399,0.136,-0.00315
51.501,0.136,-0.00405
51.6,0.136,-0.00465
51.7,0.135,-0.00315
51.8,0.135,-0.00375
51.901,0.135,-0.0042
51.999,0.134,-0.00285
52.099,0.1335,-0.003
52.199,0.1335,-0.003
52.3,0.1335,-0.0039
52.401,0.133,-0.00375
52.5,0.1325,-0.00315
52.599,0.132,-0.003
52.7,0.132,-0.00375
52.801,0.132,-0.00375
52.9,0.131,-0.003
52.999,0.1305,-0.003
53.101,0.131,-0.00375
53.201,0.131,-0.00555
53.299,0.1295,-0.00285
53.401,0.13,-0.0045
53.5,0.1295,-0.0045
53.601,0.13,-0.00915
53.701,0.129,-0.0039
53.8,0.1285,-0.00315
53.899,0.128,-0.003
54,0.128,-0.003
54.101,0.128,-0.00405
54.201,0.1275,-0.0039
54.301,0.1275,-0.0045
54.4,0.127,-0.00315
54.499,0.126,-0.00285
54.6,0.1265,-0.00465
54.7,0.126,-0.0045
54.8,0.1255,-0.00315
54.899,0.1255,-0.00315
55.001,0.125,-0.00435
55.1,0.1245,-0.00315
55.201,0.125,-0.0048
55.3,0.124,-0.00315
55.4,0.124,-0.00495
55.499,0.1235,-0.00315
55.6,0.1235,-0.0033
55.7,0.1235,-0.00495
55.8,0.123,-0.00435
55.9,0.1225,-0.00435
56,0.1225,-0.0042
56.099,0.122,-0.0033
56.2,0.1215,-0.0033
56.301,0.1215,-0.00435
56.4,0.1215,-0.00435
56.5,0.121,-0.00465
56.6,0.1205,-0.0033
56.7,0.1205,-0.00465
56.799,0.12,-0.00465
56.9,0.12,-0.00465
57,0.1195,-0.00465
57.1,0.119,-0.00345
57.2,0.119,-0.00465
57.299,0.1185,-0.00345
57.4,0.1185,-0.00345
57.501,0.1185,-0.0048
57.599,0.118,-0.00345
57.7,0.118,-0.0048
57.799,0.117,-0.00345
57.9,0.1175,-0.0048
58,0.117,-0.0048
58.101,0.117,-0.0048
58.2,0.1165,-0.00345
58.299,0.116,-0.00495
58.4,0.1165,-0.00495
58.5,0.116,-0.00495
58.601,0.1155,-0.00495
58.699,0.115,-0.00345
58.8,0.1155,-0.0051
58.9,0.1145,-0.0036
58.999,0.1145,-0.00525
59.1,0.114,-0.0036
59.2,0.114,-0.00375
59.3,0.114,-0.00525
59.399,0.1135,-0.00375
59.499,0.113,-0.0039
59.6,0.1135,-0.0054
59.699,0.1125,-0.0045
59.8,0.113,-0.0054
59.899,0.1125,-0.00435
60.001,0.1135,-0.0075
60.1,0.112,-0.00555
60.2,0.1115,-0.00555
60.301,0.1115,-0.00555
60.4,0.1115,-0.0057
60.499,0.111,-0.00465
60.601,0.111,-0.0057
60.7,0.111,-0.0057
60.8,0.1105,-0.0078
60.9,0.1105,-0.00585
61.001,0.1115,-0.0078
61.099,0.1095,-0.00435
61.201,0.11,-0.006
61.3,0.1095,-0.006
61.4,0.109,-0.00465
61.499,0.1085,-0.0045
61.599,0.1085,-0.0063
61.701,0.109,-0.0063
61.801,0.1085,-0.00645
61.9,0.1085,-0.00645
62.001,0.1085,-0.00825
62.101,0.1085,-0.0084
62.2,0.1075,-0.00495
62.3,0.1075,-0.00675
62.401,0.1075,-0.00855
62.501,0.1075,-0.00855
62.6,0.107,-0.0069
62.7,0.1065,-0.00705
62.8,0.1065,-0.00705
62.9,0.106,-0.0072
63.001,0.106,-0.00885
63.1,0.1055,-0.0072
63.2,0.106,-0.0072
63.3,0.106,-0.0072
63.401,0.1045,-0.00735
63.499,0.1045,-0.00555
63.599,0.1045,-0.0054
63.7,0.105,-0.00735
63.8,0.104,-0.00555
63.9,0.104,-0.00555
64,0.1035,-0.00555
64.1,0.103,-0.0075
64.199,0.103,-0.00555
64.301,0.1035,-0.0096
64.399,0.103,-0.0057
64.501,0.103,-0.0096
64.599,0.1025,-0.0057
64.701,0.103,-0.00975
64.801,0.1025,-0.0099
64.9,0.102,-0.00585
65,0.102,-0.006
65.099,0.1015,-0.006
65.201,0.102,-0.01005
65.3,0.101,-0.00615
65.4,0.1015,-0.00825
65.5,0.1015,-0.00825
65.601,0.101,-0.01035
65.7,0.101,-0.0084
65.8,0.1005,-0.0084
65.9,0.1005,-0.0084
66,0.1005,-0.00855
66.1,0.1,-0.0084
66.2,0.1,-0.00855
66.301,0.1,-0.0087
66.401,0.0995,-0.0108
66.499,0.099,-0.00705
66.599,0.099,-0.00705
66.701,0.0985,-0.01095
66.8,0.0985,-0.00705
66.899,0.0985,-0.00705
67,0.0985,-0.00885
67.101,0.098,-0.01125
67.201,0.098,-0.009
67.3,0.098,-0.0072
67.4,0.098,-0.0072
67.5,0.098,-0.0072
67.6,0.097,-0.00915
67.699,0.0975,-0.00735
67.8,0.097,-0.00915
67.901,0.0965,-0.0093
68,0.097,-0.0075
68.101,0.0965,-0.0093
68.199,0.0955,-0.0057
68.3,0.0965,-0.0075
68.4,0.096,-0.0075
68.5,0.0955,-0.00945
68.6,0.0955,-0.0096
68.7,0.0955,-0.00945
68.801,0.095,-0.01215
68.901,0.095,-0.00975
69,0.0955,-0.0078
69.099,0.094,-0.006
69.199,0.0945,-0.00795
69.301,0.0945,-0.0099
69.4,0.094,-0.01005
69.5,0.094,-0.0081
69.6,0.094,-0.0102
69.699,0.0935,-0.0081
69.8,0.0935,-0.00825
69.9,0.0935,-0.00825
70.001,0.093,-0.01275
70.101,0.0925,-0.0105
70.2,0.093,-0.0084
70.3,0.0925,-0.0129
70.4,0.092,-0.0105
70.5,0.092,-0.00855
70.6,0.092,-0.00855
70.7,0.092,-0.00855
70.8,0.0915,-0.01065
70.9,0.0915,-0.0108
71,0.091,-0.0108
71.101,0.091,-0.01305
71.2,0.091,-0.01095
71.3,0.0905,-0.01095
71.401,0.0905,-0.01305
71.5,0.0905,-0.0087
71.599,0.0905,-0.00705
71.699,0.0905,-0.00885
71.8,0.09,-0.0111
71.9,0.09,-0.00885
72,0.0895,-0.0111
72.103,0.0895,-0.0162
72.201,0.0895,-0.01335
72.299,0.089,-0.009
72.4,0.089,-0.009
72.5,0.089,-0.01125
72.601,0.0885,-0.01125
72.701,0.0885,-0.01125
72.8,0.0885,-0.009
72.899,0.0885,-0.009
72.999,0.088,-0.009
73.101,0.088,-0.0114
73.2,0.0875,-0.0114
73.301,0.0875,-0.01155
73.399,0.087,-0.00735
73.5,0.0875,-0.00915
73.6,0.0875,-0.00915
73.7,0.087,-0.00915
73.799,0.087,-0.0093
73.901,0.0865,-0.0117
73.999,0.087,-0.0075
74.099,0.0865,-0.0093
74.201,0.0865,-0.01395
74.3,0.086,-0.01185
74.4,0.086,-0.0093
74.499,0.085,-0.0075
74.601,0.0855,-0.01185
74.7,0.0855,-0.012
74.8,0.0855,-0.01185
74.901,0.0855,-0.01395
74.999,0.0855,-0.0096
75.1,0.085,-0.012
75.2,0.085,-0.01215
75.3,0.0845,-0.01215
75.401,0.0845,-0.01215
75.5,0.0845,-0.00975
75.6,0.0845,-0.0123
75.701,0.084,-0.0123
75.8,0.084,-0.0099
75.9,0.084,-0.0123
75.999,0.084,-0.0099
76.099,0.084,-0.01005
76.2,0.0835,-0.01245
76.3,0.0835,-0.01245
76.4,0.0835,-0.01005
76.5,0.0835,-0.0102
76.599,0.083,-0.01035
76.7,0.083,-0.01035
76.8,0.0825,-0.01275
76.9,0.0825,-0.01035
77,0.0825,-0.01275
77.1,0.082,-0.01275
77.199,0.082,-0.0105
77.3,0.082,-0.0129
77.399,0.082,-0.0108
77.501,0.082,-0.01305
77.601,0.0815,-0.0147
77.7,0.0815,-0.0108
77.8,0.0815,-0.01305
77.901,0.081,-0.01305
78,0.081,-0.0132
78.101,0.081,-0.01485
78.199,0.0805,-0.0111
78.3,0.0805,-0.0132
78.4,0.0805,-0.01335
78.499,0.0805,-0.01125
78.6,0.08,-0.01125
78.7,0.08,-0.0114
78.8,0.08,-0.0114
78.901,0.08,-0.01635
79,0.08,-0.01365
79.101,0.08,-0.0153
79.2,0.0795,-0.0138
79.3,0.0795,-0.0138
79.399,0.079,-0.01185
79.5,0.079,-0.0117
79.6,0.079,-0.01185
79.7,0.079,-0.0141
79.801,0.0785,-0.01545
79.9,0.0785,-0.01215
80,0.0785,-0.01425
80.1,0.0785,-0.01425
80.201,0.0785,-0.01425
80.3,0.078,-0.01425
80.401,0.078,-0.0141
80.499,0.078,-0.0123
80.6,0.078,-0.01425
80.7,0.0775,-0.0126
80.799,0.0775,-0.01245
80.9,0.0775,-0.01245
81,0.0775,-0.0144
81.1,0.0775,-0.0144
81.201,0.077,-0.0144
81.3,0.077,-0.0126
81.4,0.077,-0.01455
81.499,0.0765,-0.01275
81.601,0.0765,-0.01455
81.7,0.0765,-0.0144
81.8,0.0765,-0.01455
81.899,0.076,-0.0129
82.001,0.076,-0.0147
82.102,0.076,-0.0159
82.2,0.076,-0.0129
82.299,0.0755,-0.0108
82.4,0.0755,-0.01305
82.5,0.0755,-0.01305
82.6,0.0755,-0.01305
82.7,0.075,-0.01305
82.8,0.075,-0.01485
82.9,0.075,-0.01485
82.999,0.075,-0.0132
83.101,0.0745,-0.015
83.2,0.0745,-0.015
83.3,0.0745,-0.015
83.401,0.074,-0.0162
83.5,0.0745,-0.015
83.6,0.074,-0.01335
83.7,0.074,-0.01515
83.799,0.074,-0.0135
83.9,0.074,-0.0135
84,0.074,-0.01515
84.101,0.0735,-0.01515
84.201,0.073,-0.01635
84.299,0.0735,-0.01155
84.401,0.0735,-0.01515
84.5,0.073,-0.01515
84.6,0.073,-0.01515
84.7,0.073,-0.0153
84.799,0.073,-0.0138
84.9,0.0725,-0.0153
85,0.0725,-0.0153
85.1,0.0725,-0.0153
85.201,0.072,-0.0165
85.299,0.0725,-0.0138
85.4,0.072,-0.01395
85.499,0.072,-0.01185
85.6,0.072,-0.01545
85.7,0.072,-0.01395
85.8,0.0715,-0.01545
85.901,0.0715,-0.01545
86,0.0715,-0.01545
86.1,0.0715,-0.01545
86.2,0.071,-0.01545
86.301,0.071,-0.01665
86.399,0.0705,-0.01665
86.5,0.071,-0.0141
86.599,0.071,-0.0141
86.7,0.0705,-0.01545
86.801,0.0705,-0.0156
86.9,0.0705,-0.0141
86.999,0.0705,-0.0123
87.101,0.07,-0.01545
87.2,0.07,-0.0141
87.3,0.07,-0.0141
87.4,0.0695,-0.01545
87.5,0.0695,-0.01545
87.601,0.0695,-0.01545
87.701,0.0695,-0.0156
87.8,0.0695,-0.0156
87.9,0.069,-0.0156
88.001,0.069,-0.0165
88.1,0.0695,-0.0141
88.199,0.069,-0.0141
88.3,0.0685,-0.0156
88.4,0.0685,-0.0156
88.501,0.0685,-0.01665
88.6,0.0685,-0.0144
88.7,0.0685,-0.01575
88.799,0.0685,-0.0144
88.901,0.0685,-0.01575
89,0.068,-0.01575
89.1,0.068,-0.01575
89.2,0.068,-0.0159
89.3,0.068,-0.0144
89.4,0.0675,-0.01575
89.5,0.0675,-0.01575
89.6,0.0675,-0.01575
89.7,0.0675,-0.0159
89.8,0.0675,-0.0159
89.901,0.067,-0.0168
90,0.067,-0.01455
90.1,0.067,-0.01455
90.2,0.067,-0.01575
90.301,0.0665,-0.0159
90.401,0.0665,-0.01575
90.499,0.0665,-0.0129
90.6,0.0665,-0.0147
90.7,0.0665,-0.01605
90.801,0.066,-0.0162
90.9,0.066,-0.01485
91,0.066,-0.01605
91.101,0.0655,-0.01605
91.201,0.0655,-0.0159
91.3,0.066,-0.0138
91.4,0.0655,-0.01485
91.501,0.0655,-0.01575
91.6,0.065,-0.0159
91.7,0.065,-0.01605
91.799,0.065,-0.01515
91.9,0.065,-0.0162
92.001,0.065,-0.0159
92.101,0.065,-0.0162
92.2,0.0645,-0.01665
92.299,0.0645,-0.01515
92.401,0.0645,-0.0162
92.499,0.0645,-0.0153
92.601,0.064,-0.01635
92.699,0.0645,-0.0141
92.799,0.064,-0.01545
92.9,0.064,-0.01635
93,0.0635,-0.01635
93.101,0.0635,-0.0165
93.2,0.064,-0.01545
93.3,0.0635,-0.0171
93.401,0.0635,-0.01665
93.499,0.0635,-0.01425
93.6,0.0635,-0.01575
93.699,0.0635,-0.0156
93.801,0.063,-0.01665
93.9,0.063,-0.01575
94,0.063,-0.01665
94.1,0.063,-0.01575
94.199,0.063,-0.01455
94.3,0.0625,-0.01665
94.401,0.0625,-0.01695
94.5,0.062,-0.01665
94.601,0.062,-0.0168
94.699,0.062,-0.01605
94.799,0.062,-0.01605
94.901,0.062,-0.01695
95,0.062,-0.01695
95.1,0.0615,-0.01695
95.201,0.0615,-0.01695
95.3,0.0615,-0.0162
95.399,0.062,-0.015
95.501,0.0615,-0.01695
95.6,0.0615,-0.0162
95.699,0.0615,-0.01515
95.799,0.0615,-0.01635
95.899,0.061,-0.01635
96.001,0.0605,-0.0171
96.101,0.0605,-0.0171
96.2,0.0605,-0.01635
96.301,0.0605,-0.0171
96.401,0.0605,-0.0171
96.501,0.06,-0.01725
96.602,0.06,-0.01725
96.7,0.06,-0.0171
96.8,0.06,-0.01665
96.9,0.0595,-0.0171
97,0.0595,-0.01725
97.1,0.0595,-0.0171
97.2,0.0595,-0.0171
97.3,0.0595,-0.0171
97.401,0.059,-0.0171
97.499,0.0595,-0.01665
97.599,0.059,-0.0168
97.701,0.059,-0.01725
97.8,0.059,-0.01725
97.9,0.059,-0.0168
98,0.0585,-0.01725
98.101,0.0585,-0.01725
98.201,0.058,-0.01695
98.3,0.0585,-0.0171
98.401,0.058,-0.01695
98.501,0.0585,-0.01725
98.601,0.058,-0.0171
98.7,0.058,-0.01695
98.8,0.058,-0.01695
98.9,0.058,-0.01695
99.001,0.0575,-0.01725
99.1,0.058,-0.0171
99.2,0.058,-0.01695
99.299,0.058,-0.01695
99.401,0.0575,-0.01725
99.499,0.0575,-0.0171
99.6,0.0575,-0.0171
99.7,0.0575,-0.01725
99.801,0.056,-0.01665
99.9,0.057,-0.0171
100,0.057,-0.015
100.1,0.057,-0.0171
100.201,0.0555,-0.0165
100.3,0.0565,-0.0171
100.4,0.0565,-0.0171
100.5,0.0565,-0.01725
100.6,0.0565,-0.0171
100.699,0.0565,-0.01725
100.801,0.056,-0.0171
100.9,0.056,-0.0171
101.001,0.056,-0.0171
101.1,0.0555,-0.0171
101.201,0.0555,-0.01695
101.3,0.056,-0.01725
101.401,0.0555,-0.01695
101.5,0.0555,-0.0168
101.599,0.0555,-0.01725
101.7,0.055,-0.01695
101.8,0.055,-0.01695
101.9,0.055,-0.01695
102,0.055,-0.01695
102.101,0.053,-0.01545
102.2,0.0545,-0.0168
102.301,0.0545,-0.0168
102.4,0.0545,-0.0168
102.5,0.054,-0.0168
102.601,0.054,-0.0168
102.7,0.054,-0.01665
102.801,0.054,-0.01665
102.9,0.0535,-0.0165
103,0.0545,-0.0171
103.101,0.053,-0.0165
103.2,0.053,-0.0165
103.301,0.053,-0.01635
103.4,0.054,-0.0171
103.499,0.0535,-0.0171
103.601,0.0525,-0.0162
103.7,0.0525,-0.0162
103.801,0.051,-0.0147
103.901,0.051,-0.0147
104.001,0.051,-0.01455
104.1,0.053,-0.01695
104.199,0.053,-0.01695
104.301,0.0515,-0.0159
104.4,0.053,-0.01695
104.499,0.053,-0.01695
104.601,0.051,-0.01575
104.7,0.051,-0.01575
104.801,0.051,-0.0156
104.9,0.0525,-0.01695
105,0.0505,-0.0156
105.101,0.05,-0.01365
105.2,0.0505,-0.0156
105.301,0.0495,-0.01365
105.401,0.05,-0.01545
105.5,0.0515,-0.0168
105.6,0.0515,-0.0168
105.7,0.05,-0.0153
105.8,0.0495,-0.01515
105.901,0.049,-0.01335
105.999,0.051,-0.01665
106.1,0.0495,-0.01515
106.201,0.049,-0.0132
106.299,0.051,-0.0165
106.399,0.0505,-0.0165
106.501,0.049,-0.015
106.6,0.049,-0.015
106.701,0.049,-0.01485
106.8,0.0485,-0.01485
106.9,0.0485,-0.01485
107.001,0.0485,-0.0129
107.099,0.05,-0.0162
107.2,0.0485,-0.01485
107.3,0.048,-0.01485
107.401,0.048,-0.0147
107.5,0.048,-0.0147
107.601,0.048,-0.01275
107.701,0.048,-0.01275
107.8,0.048,-0.0147
107.9,0.0475,-0.01455
108,0.0475,-0.01455
108.1,0.0475,-0.0144
108.2,0.0485,-0.01575
108.3,0.048,-0.0159
108.4,0.0475,-0.01425
108.5,0.047,-0.0141
108.599,0.048,-0.01575
108.7,0.047,-0.01395
108.799,0.048,-0.01575
108.899,0.0475,-0.01575
109.001,0.047,-0.01215
109.101,0.047,-0.0138
109.2,0.047,-0.01545
109.301,0.0465,-0.01365
109.4,0.0465,-0.0135
109.5,0.0465,-0.0135
109.601,0.0465,-0.0135
109.701,0.046,-0.01335
109.799,0.048,-0.0168
109.901,0.046,-0.01335
110,0.0465,-0.0153
110.1,0.0465,-0.015
110.199,0.046,-0.01515
110.3,0.0455,-0.01335
110.4,0.046,-0.0132
110.501,0.0455,-0.0132
110.6,0.046,-0.015
110.7,0.0455,-0.0132
110.8,0.0455,-0.015
110.9,0.0455,-0.01305
111,0.0455,-0.0132
111.1,0.0455,-0.01485
111.199,0.0455,-0.015
111.3,0.045,-0.01305
111.401,0.045,-0.0132
111.5,0.045,-0.01305
111.6,0.045,-0.01305
111.701,0.045,-0.0132
111.8,0.045,-0.01485
111.899,0.046,-0.0162
112.001,0.0445,-0.01305
112.101,0.0445,-0.01305
112.2,0.0445,-0.01305
112.3,0.0445,-0.01305
112.401,0.0445,-0.0129
112.5,0.0445,-0.01485
112.6,0.044,-0.0129
112.701,0.044,-0.0129
112.8,0.044,-0.0147
112.901,0.044,-0.01275
113.001,0.044,-0.0108
113.099,0.044,-0.01455
113.2,0.044,-0.01455
113.301,0.0435,-0.01275
113.399,0.045,-0.01605
113.5,0.0435,-0.01455
113.6,0.0435,-0.0126
113.701,0.0435,-0.01065
113.8,0.0435,-0.01245
113.9,0.0435,-0.01245
114.001,0.043,-0.0126
114.101,0.043,-0.01245
114.2,0.043,-0.01245
114.3,0.043,-0.01425
114.401,0.043,-0.01245
114.5,0.043,-0.0123
114.6,0.0425,-0.0141
114.7,0.0425,-0.01395
114.8,0.0425,-0.01395
114.901,0.0425,-0.01215
115,0.0425,-0.012
115.099,0.0425,-0.01365
115.2,0.0425,-0.01185
115.299,0.042,-0.0135
115.4,0.0425,-0.0117
115.5,0.0425,-0.0117
115.601,0.0425,-0.00945
115.7,0.0425,-0.0117
115.801,0.042,-0.01155
115.901,0.042,-0.0114
116,0.0415,-0.01305
116.1,0.042,-0.0114
116.201,0.0425,-0.00885
116.301,0.042,-0.00885
116.401,0.042,-0.0111
116.5,0.0415,-0.0111
116.601,0.0415,-0.0111
116.7,0.0415,-0.0111
116.8,0.0415,-0.01095
116.9,0.0415,-0.01095
117.001,0.042,-0.00825
117.101,0.0415,-0.00825
117.201,0.0415,-0.00825
117.301,0.041,-0.01065
117.4,0.041,-0.01065
117.501,0.0415,-0.0081
117.6,0.041,-0.01035
117.701,0.041,-0.0102
117.801,0.041,-0.0102
117.901,0.041,-0.0078
118,0.041,-0.01005
118.1,0.041,-0.01005
118.201,0.0405,-0.0099
118.3,0.0405,-0.01215
118.401,0.041,-0.00975
118.499,0.04,-0.0135
118.6,0.0405,-0.0057
118.701,0.0405,-0.0096
118.8,0.04,-0.0117
118.9,0.0405,-0.00945
119.001,0.0405,-0.0093
119.099,0.04,-0.01155
119.199,0.04,-0.01155
119.301,0.0405,-0.00705
119.4,0.04,-0.00915
119.5,0.04,-0.00885
119.6,0.0395,-0.0114
119.7,0.0395,-0.01125
119.801,0.04,-0.00885
119.899,0.0395,-0.0111
120.001,0.04,-0.00675
120.101,0.0395,-0.0087
120.201,0.0395,-0.0087
120.3,0.039,-0.0111
120.4,0.039,-0.01095
120.5,0.039,-0.01095
120.6,0.0395,-0.00855
120.701,0.0395,-0.00855
120.801,0.039,-0.0084
120.9,0.039,-0.01095
120.999,0.0385,-0.01065
121.1,0.039,-0.00825
121.2,0.039,-0.00825
121.301,0.039,-0.00825
121.402,0.0395,-0.0048
121.501,0.039,-0.0063
121.6,0.0385,-0.0081
121.701,0.0385,-0.0081
121.8,0.0385,-0.0063
121.901,0.0385,-0.0063
122.001,0.0385,-0.00615
122.1,0.0385,-0.00795
122.201,0.0385,-0.00795
122.3,0.0385,-0.00795
122.4,0.038,-0.00795
122.501,0.0385,-0.00615
122.601,0.038,-0.00615
122.7,0.038,-0.00795
122.8,0.038,-0.00615
122.901,0.038,-0.00615
123,0.038,-0.0078
123.099,0.0375,-0.0102
123.2,0.038,-0.00765
123.3,0.0375,-0.01005
123.401,0.0375,-0.0078
123.5,0.0375,-0.01005
123.6,0.0375,-0.00765
123.7,0.0375,-0.00765
123.8,0.0375,-0.00765
123.901,0.0375,-0.006
123.999,0.037,-0.0099
124.101,0.0375,-0.006
124.201,0.0375,-0.006
124.3,0.037,-0.00765
124.4,0.037,-0.00975
124.5,0.037,-0.00765
124.601,0.037,-0.006
124.702,0.037,-0.00585
124.8,0.037,-0.0075
124.9,0.0365,-0.0096
125,0.0365,-0.0075
125.1,0.037,-0.0075
125.201,0.0365,-0.0075
125.3,0.0365,-0.00735
125.4,0.0365,-0.00945
125.499,0.036,-0.01185
125.6,0.0365,-0.00945
125.7,0.0365,-0.00945
125.8,0.036,-0.00735
125.9,0.036,-0.00735
126,0.036,-0.00735
126.101,0.0365,-0.0057
126.2,0.036,-0.00735
126.301,0.036,-0.0057
126.4,0.036,-0.00735
126.499,0.036,-0.00945
126.602,0.036,-0.0057
126.7,0.036,-0.00735
126.799,0.0355,-0.00945
126.901,0.0355,-0.00735
127.001,0.0355,-0.00735
127.101,0.036,-0.0057
127.2,0.0355,-0.0093
127.299,0.0355,-0.0093
127.4,0.0355,-0.00735
127.5,0.0355,-0.00735
127.601,0.0355,-0.0057
127.699,0.035,-0.00555
127.8,0.035,-0.0072
127.9,0.035,-0.0072
128.001,0.035,-0.0072
128.1,0.035,-0.00945
128.201,0.035,-0.0072
128.3,0.035,-0.0072
128.401,0.035,-0.0072
128.5,0.035,-0.00735
128.601,0.035,-0.0057
128.701,0.0345,-0.0072
128.8,0.0345,-0.00735
128.901,0.0345,-0.0072
129.001,0.0345,-0.0072
129.1,0.0345,-0.0072
129.201,0.0345,-0.00735
129.3,0.034,-0.0072
129.4,0.034,-0.00735
129.501,0.034,-0.0072
129.6,0.034,-0.0072
129.7,0.034,-0.0072
129.801,0.034,-0.0057
129.899,0.034,-0.00945
130,0.034,-0.0093
130.099,0.034,-0.0093
130.201,0.0335,-0.0072
130.301,0.034,-0.0072
130.4,0.0335,-0.00735
130.501,0.034,-0.0057
130.6,0.0335,-0.0072
130.699,0.0335,-0.0093
130.801,0.0335,-0.0072
130.9,0.0335,-0.00705
131.001,0.0335,-0.00555
131.1,0.033,-0.0069
131.201,0.0335,-0.0054
131.301,0.0335,-0.00555
131.401,0.033,-0.00705
131.499,0.033,-0.00915
131.599,0.033,-0.00915
131.701,0.033,-0.00555
131.801,0.0325,-0.00705
131.899,0.0325,-0.01155
132,0.0325,-0.00705
132.099,0.0325,-0.00915
132.2,0.0325,-0.0069
132.3,0.0325,-0.00915
132.401,0.033,-0.0054
132.501,0.033,-0.00525
132.601,0.0325,-0.0069
132.7,0.0325,-0.00675
132.8,0.0325,-0.00675
132.901,0.032,-0.00675
133,0.032,-0.0087
133.101,0.032,-0.0066
133.2,0.032,-0.0087
133.3,0.032,-0.00885
133.4,0.032,-0.00675
133.501,0.0325,-0.00525
133.599,0.032,-0.00675
133.7,0.032,-0.00885
133.799,0.0315,-0.0111
133.901,0.032,-0.0066
134.001,0.0315,-0.0066
134.1,0.0315,-0.00855
134.2,0.0315,-0.0066
134.301,0.0315,-0.0066
134.4,0.0315,-0.00675
134.5,0.0315,-0.00855
134.6,0.031,-0.00855
134.701,0.031,-0.0066
134.8,0.031,-0.0084
134.899,0.031,-0.0084
135.001,0.031,-0.0066
135.1,0.031,-0.0066
135.201,0.0315,-0.0051
135.3,0.031,-0.00645
135.4,0.031,-0.00645
135.501,0.0315,-0.00495
135.6,0.031,-0.0066
135.7,0.031,-0.00825
135.8,0.0305,-0.00645
135.9,0.031,-0.00645
136.001,0.031,-0.00495
136.1,0.0305,-0.00645
136.201,0.0305,-0.00645
136.3,0.0305,-0.00825
136.401,0.0305,-0.00645
136.5,0.0305,-0.00645
136.601,0.0305,-0.00645
136.701,0.0305,-0.00645
136.8,0.03,-0.00825
136.9,0.03,-0.00645
137,0.03,-0.00645
137.101,0.0305,-0.0048
137.2,0.03,-0.00645
137.3,0.03,-0.00645
137.4,0.0305,-0.0039
137.5,0.03,-0.00645
137.601,0.0305,-0.00495
137.7,0.03,-0.0063
137.801,0.03,-0.0063
137.901,0.03,-0.00495
138,0.0295,-0.0063
138.1,0.0295,-0.00615
138.201,0.03,-0.0048
138.3,0.0295,-0.0063
138.401,0.0295,-0.0063
138.5,0.0295,-0.0063
138.601,0.0295,-0.00645
138.701,0.0295,-0.0063
138.801,0.0295,-0.0063
138.9,0.0295,-0.00615
139,0.029,-0.00795
139.1,0.029,-0.0063
139.2,0.029,-0.0063
139.301,0.0295,-0.00495
139.4,0.029,-0.0063
139.501,0.0295,-0.0048
139.6,0.029,-0.0063
139.7,0.0285,-0.0081
139.8,0.029,-0.00615
139.901,0.029,-0.0048
140.001,0.0285,-0.00615
140.1,0.029,-0.00615
140.201,0.029,-0.0048
140.3,0.0285,-0.00615
140.4,0.0285,-0.00615
140.501,0.0285,-0.00615
140.6,0.0285,-0.00615
140.7,0.0285,-0.00615
140.801,0.0285,-0.0048
140.901,0.029,-0.0039
141.001,0.0285,-0.00465
141.1,0.028,-0.00765
141.2,0.0285,-0.00615
141.301,0.028,-0.006
141.4,0.028,-0.00765
141.5,0.028,-0.00765
141.6,0.028,-0.006
141.701,0.028,-0.00615
141.801,0.028,-0.00615
141.9,0.028,-0.00615
142.001,0.0285,-0.0048
142.101,0.028,-0.006
142.2,0.028,-0.006
142.301,0.0275,-0.00615
142.401,0.028,-0.00615
142.5,0.0275,-0.0075
142.601,0.0275,-0.006
142.7,0.0275,-0.00615
142.8,0.0275,-0.006
142.9,0.0275,-0.006
143.001,0.0275,-0.006
143.1,0.027,-0.0075
143.2,0.027,-0.0075
143.3,0.027,-0.006
143.4,0.027,-0.0075
143.5,0.0275,-0.00615
143.6,0.027,-0.00615
143.7,0.027,-0.00615
143.8,0.027,-0.00615
143.901,0.027,-0.00615
144.001,0.0275,-0.00495
144.101,0.0275,-0.00495
144.201,0.0275,-0.00495
144.3,0.027,-0.0063
144.4,0.0265,-0.00765
144.499,0.0265,-0.0096
144.599,0.0265,-0.00765
144.7,0.0265,-0.00765
144.8,0.0265,-0.0063
144.901,0.0265,-0.0063
145,0.0265,-0.0063
145.101,0.027,-0.00525
145.201,0.0265,-0.0063
145.3,0.0265,-0.0063
145.401,0.0265,-0.00645
145.5,0.0265,-0.00645
145.601,0.026,-0.00645
145.7,0.026,-0.0078
145.799,0.026,-0.0078
145.901,0.0265,-0.00645
146.001,0.026,-0.00645
146.101,0.0265,-0.0054
146.2,0.026,-0.00645
146.301,0.0265,-0.00525
146.4,0.026,-0.0066
146.501,0.026,-0.0066
146.6,0.026,-0.0066
146.7,0.026,-0.0066
146.801,0.026,-0.0054
146.9,0.0255,-0.00675
147.001,0.0255,-0.0066
147.1,0.025,-0.0081
147.199,0.025,-0.0081
147.3,0.0255,-0.0066
147.4,0.0255,-0.00675
147.501,0.0255,-0.00675
147.6,0.0255,-0.00675
147.7,0.025,-0.0081
147.799,0.025,-0.0081
147.901,0.0255,-0.00675
148.001,0.0255,-0.00675
148.1,0.025,-0.00675
148.201,0.0255,-0.0057
148.3,0.025,-0.0069
148.401,0.0255,-0.0057
148.5,0.025,-0.0069
148.6,0.025,-0.0069
148.701,0.025,-0.00705
148.799,0.0245,-0.0084
148.901,0.025,-0.00705
149,0.025,-0.0072
149.1,0.0245,-0.00825
149.201,0.025,-0.00705
149.3,0.0245,-0.0072
149.399,0.024,-0.00855
149.501,0.025,-0.006
149.601,0.0245,-0.0072
149.7,0.024,-0.00855
149.8,0.0245,-0.0072
149.899,0.024,-0.0087
150.001,0.025,-0.0063
150.101,0.0245,-0.0075
150.199,0.024,-0.01065
150.3,0.0245,-0.00765
150.4,0.024,-0.00885
150.5,0.024,-0.00885
150.6,0.024,-0.00765
150.701,0.024,-0.00765
150.8,0.024,-0.00765
150.901,0.024,-0.0078
151,0.024,-0.0078
151.1,0.024,-0.00795
151.201,0.024,-0.00795
151.3,0.0235,-0.00915
151.4,0.0235,-0.00795
151.5,0.0235,-0.0093
151.6,0.0235,-0.00795
151.7,0.0235,-0.00945
151.8,0.0235,-0.0081
151.901,0.0235,-0.0081
152,0.023,-0.0096
152.1,0.023,-0.0096
152.2,0.0235,-0.00825
152.3,0.0235,-0.0084
152.4,0.0235,-0.0084
152.501,0.023,-0.0084
152.6,0.023,-0.00855
152.701,0.0235,-0.0075
152.8,0.023,-0.01005
152.9,0.023,-0.01005
153.001,0.023,-0.0087
153.1,0.023,-0.0087
153.201,0.023,-0.00705
153.3,0.023,-0.00885
153.4,0.023,-0.00885
153.501,0.023,-0.00765
153.6,0.0225,-0.00885
153.701,0.0225,-0.009
153.801,0.0225,-0.009
153.9,0.0225,-0.009
154,0.0225,-0.009
154.1,0.0225,-0.00915
154.201,0.0225,-0.00915
154.301,0.0225,-0.00915
154.401,0.0225,-0.0093
154.5,0.022,-0.01065
154.6,0.022,-0.0108
154.7,0.0225,-0.00945
154.8,0.0225,-0.00945
154.901,0.0225,-0.0096
155.001,0.022,-0.0096
155.1,0.022,-0.0096
155.2,0.022,-0.00975
155.3,0.022,-0.00975
155.401,0.0225,-0.0087
155.5,0.022,-0.00975
155.601,0.022,-0.00885
155.701,0.022,-0.00885
155.801,0.022,-0.0087
155.9,0.0215,-0.0099
156,0.022,-0.01005
156.101,0.022,-0.009
156.2,0.0215,-0.01005
156.3,0.0215,-0.0102
156.4,0.0215,-0.01155
156.5,0.0215,-0.0117
156.6,0.0215,-0.0105
156.701,0.022,-0.00945
156.801,0.0215,-0.01065
156.9,0.0215,-0.01065
157,0.0215,-0.01065
157.1,0.0215,-0.0096
157.201,0.021,-0.0108
157.3,0.0215,-0.0108
157.4,0.0215,-0.0108
157.501,0.021,-0.0108
157.6,0.021,-0.01095
157.7,0.021,-0.01095
157.801,0.0215,-0.00975
157.9,0.021,-0.0111
158.001,0.021,-0.0111
158.101,0.021,-0.0111
158.2,0.021,-0.01245
158.3,0.021,-0.0114
158.401,0.021,-0.0114
158.5,0.021,-0.01125
158.601,0.0205,-0.01155
158.7,0.0205,-0.0114
158.801,0.0205,-0.01155
158.9,0.0205,-0.01155
159,0.0205,-0.0117
159.101,0.021,-0.01065
159.2,0.0205,-0.0117
159.3,0.0205,-0.012
159.401,0.0205,-0.0108
159.5,0.0205,-0.012
159.601,0.0205,-0.01095
159.701,0.0205,-0.01095
159.8,0.0205,-0.01215
159.9,0.02,-0.0135
160,0.02,-0.0123
160.099,0.02,-0.01365
160.201,0.0205,-0.01125
160.301,0.02,-0.01245
160.4,0.02,-0.0126
160.5,0.02,-0.0138
160.6,0.02,-0.0126
160.701,0.0205,-0.01155
160.8,0.02,-0.01275
160.901,0.0205,-0.0117
161.001,0.02,-0.01185
161.099,0.0195,-0.01425
161.201,0.02,-0.0129
161.3,0.02,-0.01305
161.4,0.0195,-0.0144
161.501,0.0195,-0.01305
161.6,0.0195,-0.0132
161.7,0.0195,-0.01455
161.8,0.0195,-0.01335
161.899,0.0195,-0.0147
162.001,0.02,-0.01605
162.1,0.019,-0.0147
162.2,0.0195,-0.0135
162.301,0.02,-0.01245
162.4,0.0195,-0.01485
162.499,0.019,-0.015
162.6,0.0195,-0.012
162.7,0.0195,-0.0138
162.799,0.019,-0.0153
162.901,0.0195,-0.01395
162.999,0.019,-0.01695
163.101,0.019,-0.0141
163.2,0.019,-0.01545
163.3,0.019,-0.01425
163.4,0.019,-0.01425
163.501,0.019,-0.0144
163.6,0.019,-0.0159
163.7,0.0185,-0.0159
163.801,0.019,-0.0147
163.901,0.019,-0.01485
164,0.019,-0.01485
164.1,0.019,-0.015
164.2,0.0185,-0.015
164.301,0.0185,-0.01515
164.4,0.0185,-0.0165
164.5,0.0185,-0.01515
164.601,0.0185,-0.0153
164.7,0.0185,-0.01545
164.801,0.0185,-0.01545
164.901,0.0185,-0.0156
165.001,0.0185,-0.01455
165.101,0.0185,-0.01455
165.201,0.0185,-0.01455
165.3,0.0185,-0.0159
165.4,0.0185,-0.01605
165.501,0.0185,-0.015
165.601,0.018,-0.0162
165.7,0.018,-0.01635
165.799,0.018,-0.0177
165.9,0.018,-0.01635
166.001,0.0185,-0.01545
166.1,0.018,-0.01665
166.2,0.018,-0.0165
166.301,0.0185,-0.0156
166.401,0.0185,-0.0156
166.5,0.018,-0.0168
166.6,0.018,-0.0168
166.7,0.018,-0.0168
166.801,0.0175,-0.01695
166.9,0.0175,-0.01815
167,0.0175,-0.01695
167.1,0.0175,-0.0171
167.201,0.0175,-0.0171
167.3,0.0175,-0.01725
167.401,0.0175,-0.0174
167.5,0.0175,-0.01755
167.6,0.0175,-0.0177
167.7,0.0175,-0.0177
167.801,0.018,-0.01665
167.901,0.018,-0.01665
168,0.0175,-0.01665
168.101,0.017,-0.0177
168.2,0.017,-0.01785
168.3,0.017,-0.01935
168.401,0.017,-0.018
168.5,0.017,-0.018
168.6,0.017,-0.01815
168.701,0.0175,-0.01695
168.8,0.017,-0.01815
168.899,0.017,-0.01965
169.001,0.0175,-0.01725
169.1,0.017,-0.01965
169.201,0.017,-0.01845
169.299,0.0165,-0.02175
169.4,0.0165,-0.01995
169.499,0.0165,-0.0201
169.601,0.0165,-0.01875
169.7,0.0165,-0.0189
169.8,0.0165,-0.0189
169.901,0.0165,-0.01905
170,0.0165,-0.01905
170.1,0.0165,-0.01905
170.201,0.0165,-0.0192
170.301,0.0165,-0.01815
170.4,0.0165,-0.01935
170.5,0.0165,-0.01935
170.6,0.0165,-0.0195
170.7,0.0165,-0.01965
170.8,0.016,-0.0213
170.901,0.0165,-0.0198
171.001,0.016,-0.01995
171.1,0.0165,-0.01995
171.2,0.016,-0.0201
171.301,0.0165,-0.0189
171.401,0.0165,-0.01905
171.499,0.016,-0.02175
171.601,0.016,-0.0204
171.701,0.016,-0.02055
171.8,0.016,-0.02055
171.901,0.016,-0.01935
172.001,0.016,-0.02085
172.1,0.016,-0.0207
172.201,0.016,-0.0195
172.301,0.016,-0.01965
172.401,0.016,-0.02085
172.5,0.016,-0.021
172.6,0.016,-0.02115
172.701,0.016,-0.01995
172.8,0.0155,-0.02265
172.901,0.016,-0.0201
173.001,0.0155,-0.0213
173.101,0.016,-0.02025
173.201,0.0155,-0.02025
173.301,0.0155,-0.02175
173.4,0.0155,-0.02175
173.5,0.0155,-0.0219
173.601,0.0155,-0.0207
173.7,0.0155,-0.02205
173.801,0.0155,-0.02085
173.899,0.015,-0.02385
174.001,0.0155,-0.0222
174.099,0.015,-0.02385
174.201,0.0155,-0.02235
174.3,0.015,-0.0222
174.4,0.015,-0.02235
174.5,0.015,-0.02235
174.601,0.015,-0.02235
174.7,0.0145,-0.024
174.8,0.015,-0.02235
174.9,0.016,-0.0189
175.001,0.015,-0.0222
175.1,0.015,-0.02235
175.201,0.0155,-0.01995
175.3,0.015,-0.0225
175.4,0.015,-0.02265
175.501,0.015,-0.02265
175.601,0.015,-0.0213
175.7,0.0145,-0.0228
175.8,0.0145,-0.02295
175.9,0.0145,-0.0231
176.001,0.0145,-0.0231
176.101,0.0145,-0.0231
176.2,0.014,-0.02475
176.301,0.0145,-0.0234
176.4,0.0145,-0.02325
176.5,0.0145,-0.0234
176.6,0.0145,-0.0234
176.7,0.0145,-0.02355
176.801,0.0145,-0.0222
176.9,0.0145,-0.0237
177,0.0145,-0.0237
177.1,0.0145,-0.02385
177.2,0.014,-0.02385
177.301,0.014,-0.02385
177.4,0.014,-0.024
177.5,0.014,-0.02415
177.6,0.0145,-0.02415
177.701,0.014,-0.02415
177.8,0.0135,-0.0258
177.9,0.014,-0.0243
177.999,0.0135,-0.02565
178.1,0.014,-0.02565
178.2,0.014,-0.0228
178.301,0.014,-0.024
178.4,0.0135,-0.0255
178.5,0.0135,-0.02535
178.6,0.0135,-0.02535
178.7,0.014,-0.024
178.8,0.014,-0.024
178.901,0.014,-0.024
179,0.014,-0.02385
179.1,0.014,-0.02385
179.201,0.014,-0.02385
179.3,0.014,-0.02385
179.4,0.0135,-0.02355
179.501,0.0135,-0.02355
179.6,0.0135,-0.0234
179.7,0.0135,-0.0234
179.8,0.014,-0.02325
179.901,0.0135,-0.02325
180,0.0135,-0.0231
180.101,0.0135,-0.0216
180.201,0.0135,-0.02145
180.301,0.0135,-0.0228
180.4,0.0135,-0.02265
180.501,0.0135,-0.0213
180.601,0.0135,-0.021
180.7,0.0135,-0.02235
180.801,0.0135,-0.02235
180.9,0.013,-0.0222
181.001,0.0135,-0.0207
181.101,0.0135,-0.0219
181.2,0.0125,-0.02325
181.301,0.013,-0.0216
181.4,0.0125,-0.0228
181.5,0.0125,-0.02265
181.6,0.0125,-0.0225
181.7,0.0125,-0.02235
181.8,0.013,-0.0207
181.901,0.013,-0.0192
182,0.013,-0.02055
182.1,0.0125,-0.02175
182.2,0.0125,-0.0216
182.301,0.013,-0.01995
182.401,0.0125,-0.0198
182.5,0.0125,-0.0213
182.6,0.0125,-0.0195
182.701,0.013,-0.01785
182.8,0.0125,-0.0192
182.901,0.0125,-0.01755
183.001,0.0125,-0.01875
183.1,0.0125,-0.0186
183.2,0.0125,-0.01845
183.3,0.0125,-0.01815
183.399,0.012,-0.01935
183.499,0.012,-0.0192
183.6,0.0125,-0.0174
183.701,0.0125,-0.0156
183.801,0.0125,-0.01665
183.9,0.0125,-0.0165
184,0.0125,-0.01605
184.1,0.012,-0.0159
184.2,0.0125,-0.01335
184.3,0.012,-0.01545
184.4,0.012,-0.01515
184.5,0.012,-0.01635
184.6,0.012,-0.0165
184.7,0.0115,-0.0162
184.8,0.0115,-0.01575
184.9,0.012,-0.0141
185,0.012,-0.01125
185.101,0.012,-0.0132
185.201,0.012,-0.0129
185.3,0.012,-0.0126
185.4,0.012,-0.01215
185.501,0.012,-0.0126
185.6,0.012,-0.01305
185.701,0.012,-0.01095
185.8,0.0115,-0.01185
185.9,0.0115,-0.0114
186,0.011,-0.01245
186.1,0.011,-0.012
186.2,0.0115,-0.0102
186.3,0.0115,-0.0099
186.399,0.011,-0.0108
186.501,0.0115,-0.0078
186.6,0.011,-0.01035
186.7,0.011,-0.01005
186.8,0.011,-0.0096
186.9,0.012,-0.0054
187,0.0115,-0.0075
187.101,0.0115,-0.00585
187.2,0.011,-0.00825
187.3,0.0115,-0.0066
187.4,0.0105,-0.0078
187.501,0.011,-0.00645
187.6,0.011,-0.0081
187.7,0.011,-0.0063
187.801,0.011,-0.00555
187.901,0.011,-0.0051
188,0.011,-0.00465
188.1,0.011,-0.00435
188.2,0.011,-0.00405
188.301,0.011,-0.00255
188.4,0.011,-0.0036
188.5,0.011,-0.0033
188.599,0.0105,-0.00435
188.701,0.011,-0.0015
188.801,0.011,-0.0027
188.9,0.011,-0.0024
189.001,0.011,-0.00195
189.101,0.011,-0.00135
189.2,0.0105,-0.00225
189.3,0.0105,-0.00045
189.401,0.011,0
189.501,0.0105,0.0003
189.6,0.01,-0.0006
189.701,0.0105,0.0012
189.8,0.0105,0.00165
189.901,0.0105,0.00315
190,0.0105,0.0021
190.101,0.0105,0.00255
190.2,0.0105,0.00315
190.301,0.0105,0.00495
190.401,0.0105,0.0054
190.5,0.0105,0.0045
190.601,0.0105,0.0063
190.7,0.0105,0.0054
190.8,0.0105,0.006
190.901,0.0105,0.00795
191.001,0.0105,0.009
191.1,0.01,0.0087
191.201,0.01,0.00975
191.301,0.01,0.01095
191.4,0.01,0.0114
191.501,0.01,0.01395
191.6,0.01,0.01395
191.7,0.01,0.0156
191.8,0.0095,0.01725
191.901,0.01,0.01935
192,0.01,0.0204
192.1,0.01,0.02145
192.199,0.0095,0.02115
192.301,0.01,0.0234
192.4,0.0095,0.0228
192.5,0.01,0.0231
192.601,0.01,0.02325
192.699,0.009,0.02295
192.801,0.0095,0.02475
192.901,0.01,0.02505
193.001,0.0095,0.02445
193.1,0.0095,0.0246
193.2,0.0095,0.0252
193.301,0.009,0.0255
193.401,0.0095,0.027
193.5,0.009,0.02625
193.601,0.009,0.0264
193.7,0.009,0.02625
193.8,0.009,0.02655
193.9,0.009,0.0279
194,0.009,0.02835
194.099,0.0085,0.0282
194.201,0.009,0.02955
194.301,0.0085,0.03015
194.4,0.0085,0.03075
194.501,0.009,0.03255
194.6,0.0085,0.03225
194.701,0.009,0.03405
194.8,0.0085,0.03375
194.901,0.0085,0.03465
195,0.0085,0.03465
195.1,0.0085,0.0354
195.201,0.0085,0.0369
195.3,0.0085,0.03735
195.401,0.0085,0.03765
195.5,0.0085,0.0387
195.601,0.0085,0.03915
195.7,0.008,0.039
195.8,0.0085,0.0408
195.9,0.0085,0.0414
196.001,0.0085,0.0417
196.101,0.008,0.04245
196.201,0.0085,0.04455
196.3,0.008,0.0438
196.401,0.008,0.0444
196.5,0.008,0.0444
196.6,0.008,0.0456
196.701,0.008,0.04665
196.8,0.008,0.04755
196.901,0.008,0.0483
197,0.0075,0.0486
197.101,0.008,0.0501
197.2,0.0075,0.0498
197.3,0.0075,0.05055
197.401,0.0075,0.0519
197.5,0.0075,0.0513
197.6,0.0075,0.0513
197.7,0.0075,0.0522
197.8,0.0075,0.05265
197.9,0.0075,0.0537
198,0.0075,0.05445
198.101,0.0075,0.0552
198.2,0.0075,0.05565
198.3,0.0075,0.0567
198.4,0.0075,0.05745
198.499,0.0075,0.0573
198.601,0.0075,0.0597
198.7,0.007,0.06015
198.8,0.0075,0.0609
198.901,0.0075,0.0624
199,0.007,0.06225
199.101,0.007,0.0651
199.2,0.007,0.06405
199.301,0.0075,0.0657
199.4,0.007,0.0657
199.501,0.007,0.0678
199.601,0.007,0.0675
199.701,0.007,0.0684
199.801,0.007,0.07065
199.901,0.007,0.07185
200.001,0.007,0.07275
200.1,0.007,0.0726
200.201,0.007,0.07335
200.3,0.0085,0.0738
200.4,0.007,0.07545
200.5,0.007,0.0762
200.601,0.0065,0.0783
200.701,0.007,0.07935
200.8,0.007,0.07905
200.9,0.007,0.07995
201,0.007,0.08115
201.1,0.0075,0.08205
201.201,0.0065,0.0837
201.3,0.0075,0.08415
201.401,0.0065,0.0858
201.501,0.008,0.08625
201.6,0.008,0.0873
201.7,0.009,0.08775
201.799,0.0095,0.08925
201.9,0.009,0.0906
202.001,0.008,0.09195
202.101,0.008,0.093
202.2,0.0085,0.0939
202.301,0.007,0.09585
202.401,0.0085,0.09615
202.5,0.009,0.09705
202.6,0.009,0.099
202.701,0.0085,0.0987
202.8,0.009,0.09975
202.9,0.0085,0.10035
203.001,0.0085,0.10125
203.1,0.0085,0.10245
203.2,0.0085,0.1032
203.301,0.0085,0.1041
203.4,0.009,0.10485
203.5,0.009,0.10635
203.601,0.0085,0.1077
203.7,0.009,0.10935
203.801,0.0085,0.1104
203.9,0.0085,0.11205
204.001,0.008,0.11325
204.1,0.0085,0.1146
204.201,0.0085,0.11565
204.3,0.009,0.1173
204.4,0.0085,0.11865
204.501,0.0085,0.12045
204.6,0.0085,0.12105
204.7,0.0085,0.12225
204.801,0.0085,0.12375
204.9,0.0085,0.12465
205.001,0.0085,0.12555
205.1,0.0085,0.12735
205.201,0.0085,0.12795
205.3,0.0085,0.12945
205.4,0.0085,0.13095
205.501,0.0085,0.13215
205.599,0.0085,0.135
205.7,0.0085,0.1359
205.8,0.0085,0.1374
205.901,0.0085,0.1389
206,0.0085,0.141
206.101,0.0085,0.1425
206.2,0.0085,0.1446
206.301,0.008,0.14565
206.4,0.0085,0.14805
206.5,0.0085,0.14985
206.6,0.0085,0.15165
206.7,0.0085,0.1542
206.8,0.0085,0.1551
206.899,0.0085,0.15765
207.001,0.0085,0.15825
207.1,0.0085,0.15975
207.201,0.0085,0.16125
207.3,0.0085,0.1626
207.4,0.008,0.1644
207.501,0.008,0.16515
207.6,0.0085,0.1677
207.7,0.0085,0.16935
207.8,0.0085,0.17025
207.9,0.0085,0.17415
208.001,0.008,0.174
208.1,0.0085,0.17685
208.2,0.0085,0.17865
208.3,0.0085,0.18045
208.401,0.008,0.1809
208.5,0.0085,0.1839
208.601,0.0085,0.1857
208.701,0.008,0.18735
208.8,0.0085,0.18975
208.9,0.008,0.1911
209.001,0.008,0.1914
209.1,0.008,0.19335
209.201,0.008,0.19395
209.3,0.008,0.19725
209.401,0.008,0.19785
209.499,0.008,0.2028
209.601,0.0075,0.20295
209.7,0.008,0.20445
209.8,0.008,0.2064
209.9,0.008,0.2085
210,0.008,0.2103
210.101,0.008,0.21045
210.199,0.0075,0.216
210.301,0.008,0.2142
210.4,0.008,0.2148
210.5,0.0075,0.21945
210.6,0.0075,0.2211
210.7,0.0075,0.2229
210.801,0.0075,0.2247
210.9,0.0075,0.22785
211,0.0075,0.2298
211.1,0.0075,0.2295
211.201,0.0075,0.2307
211.3,0.0065,0.2337
211.4,0.0075,0.23385
211.5,0.0075,0.2352
211.601,0.0075,0.2343
211.7,0.0075,0.23745
211.8,0.0075,0.23865
211.9,0.007,0.2406
212,0.0075,0.24225
212.101,0.007,0.24195
212.201,0.007,0.2433
212.301,0.0075,0.24675
212.4,0.007,0.2496
212.5,0.007,0.2511
212.6,0.007,0.25245
212.7,0.0065,0.2523
212.801,0.0075,0.2523
212.901,0.007,0.2535
213.001,0.0065,0.25665
213.101,0.007,0.2565
213.201,0.008,0.2592
213.301,0.007,0.2592
213.4,0.0065,0.2631
213.5,0.007,0.2631
213.6,0.007,0.26475
213.7,0.0065,0.26625
213.801,0.0065,0.26745
213.9,0.0065,0.26985
214,0.0065,0.26985
214.101,0.0065,0.2706
214.2,0.0065,0.2715
214.3,0.0065,0.27225
214.4,0.0065,0.27315
214.501,0.0065,0.27225
214.6,0.0065,0.2733
214.701,0.0065,0.27585
214.8,0.0065,0.27705
214.901,0.0065,0.2739
215,0.006,0.2778
215.1,0.006,0.2787
215.2,0.006,0.2796
215.3,0.006,0.2808
215.4,0.006,0.282
215.5,0.006,0.2829
215.601,0.006,0.2844
215.701,0.006,0.2826
215.8,0.0055,0.2874
215.9,0.006,0.2874
216,0.0055,0.28905
216.1,0.0055,0.2892
216.201,0.0055,0.29025
216.3,0.0055,0.29115
216.401,0.006,0.2907
216.501,0.0055,0.29265
216.601,0.0055,0.29355
216.701,0.0055,0.2931
216.8,0.005,0.29415
216.9,0.0055,0.2946
217.001,0.0055,0.2955
217.1,0.005,0.29655
217.201,0.0055,0.29715
217.3,0.0055,0.2982
217.401,0.005,0.29955
217.5,0.005,0.3006
217.601,0.005,0.30165
217.699,0.0045,0.3018
217.799,0.005,0.3033
217.901,0.005,0.30435
218,0.005,0.3054
218.1,0.0045,0.306
218.2,0.005,0.3066
218.301,0.005,0.30705
218.4,0.0045,0.30705
218.501,0.005,0.30705
218.6,0.0045,0.30705
218.7,0.0045,0.30705
218.8,0.0045,0.30705
218.901,0.0045,0.30705
219,0.0045,0.30705
219.101,0.0045,0.30705
219.201,0.0045,0.30705
219.3,0.0045,0.30705
219.401,0.005,0.30705
219.501,0.0045,0.30705
219.6,0.004,0.30705
219.7,0.0045,0.30705
219.8,0.0045,0.30705
219.901,0.0045,0.30705
220.001,0.0045,0.30705
220.101,0.004,0.30705
220.2,0.0045,0.30705
220.301,0.004,0.30705
220.4,0.004,0.30705
220.501,0.0045,0.30705
220.601,0.0045,0.30705
220.7,0.004,0.30705
220.799,0.0035,0.30705
220.9,0.004,0.30705
221,0.004,0.30705
221.1,0.004,0.30705
221.201,0.004,0.30705
221.3,0.004,0.30705
221.399,0.0035,0.30705
221.501,0.004,0.30705
221.6,0.004,0.30705
221.7,0.0035,0.30705
221.801,0.004,0.30705
221.9,0.0035,0.30705
222,0.0035,0.30705
222.101,0.004,0.30705
222.201,0.0035,0.30705
222.3,0.003,0.30705
222.4,0.003,0.3072
222.5,0.0035,0.30705
222.601,0.0035,0.30705
222.7,0.0035,0.30705
222.8,0.003,0.30705
222.9,0.003,0.30705
223.001,0.003,0.30705
223.101,0.0035,0.30705
223.201,0.0035,0.30705
223.3,0.003,0.30705
223.401,0.003,0.30705
223.501,0.003,0.30705
223.6,0.003,0.30705
223.701,0.003,0.30705
223.801,0.0035,0.30705
223.9,0.003,0.30705
224,0.0025,0.30705
224.1,0.0025,0.30705
224.201,0.0025,0.30705
224.301,0.0025,0.30705
224.4,0.0025,0.30705
224.5,0.0025,0.30705
224.6,0.0025,0.30705
224.7,0.0025,0.30705
224.8,0.0025,0.30705
224.901,0.0025,0.30705
225.001,0.003,0.30705
225.101,0.0025,0.30705
225.2,0.0025,0.30705
225.3,0.0025,0.30705
225.401,0.0025,0.30705
225.501,0.0025,0.30705
225.6,0.0025,0.30705
225.701,0.0025,0.30705
225.8,0.0025,0.30705
225.9,0.002,0.30705
226.001,0.0025,0.30705
226.101,0.002,0.30705
226.2,0.002,0.30705
226.301,0.002,0.30705
226.4,0.0015,0.30705
226.5,0.0015,0.30705
226.6,0.0015,0.30705
226.7,0.002,0.3385
226.799,0.0015,0.3365
226.901,0.002,0.338
227.001,0.002,0.3375
227.1,0.002,0.337
227.201,0.002,0.3395
227.301,0.002,0.337
227.4,0.0015,0.334
227.5,0.0015,0.3335
227.6,0.0015,0.3355
227.701,0.0015,0.335
227.8,0.0015,0.334
227.901,0.002,0.3355
228,0.0015,0.332
228.101,0.002,0.334
228.2,0.0015,0.3305
228.3,0.001,0.329
228.4,0.0015,0.328
228.501,0.002,0.3295
228.601,0.002,0.3285
228.701,0.002,0.3275
228.801,0.0015,0.324
228.9,0.001,0.3215
229,0.001,0.3225
229.101,0.001,0.3215
229.2,0.001,0.3205
229.3,0.001,0.319
229.401,0.0015,0.3205
229.5,0.001,0.3175
229.6,0.001,0.3165
229.7,0.001,0.3155
229.801,0.001,0.317
229.9,0.001,0.3135
230,0.001,0.314
230.1,0.001,0.313
230.201,0.001,0.3145
230.301,0.001,0.314
230.4,0.001,0.3115
230.5,0.0005,0.3115
230.601,0.001,0.313
230.701,0.001,0.312
230.802,0.0015,0.3135
230.901,0.0005,0.3085
231,0.0015,0.306
231.1,0.0015,0.3055
231.2,0.0005,0.3075
231.301,0.0005,0.3075
231.401,0.0005,0.3085
231.5,0.0015,0.308
231.6,0.0005,0.3105
231.7,0.0005,0.311
231.8,0.0005,0.311
231.901,0.0005,0.314
232,0.0005,0.3125
232.101,0.0005,0.311
232.2,0.0005,0.3115
232.301,0.0005,0.314
232.4,0.0005,0.3115
232.5,0.001,0.311
232.601,0.001,0.3105
232.7,0.0025,0.3085
232.8,0.0025,0.3075
232.9,0.001,0.3085
233.001,0.0005,0.31
233.1,0.001,0.309
233.2,0.001,0.309
233.301,0.0005,0.312
233.403,0.0005,0.314
233.5,0.0015,0.3105
233.601,0.0005,0.313
233.7,0.0015,0.3115
233.8,0.0015,0.3115
233.901,0.0015,0.313
234,0.003,0.312
234.1,0.0015,0.3135
234.2,0.0015,0.3145
234.299,0.0025,0.314
234.4,0.0015,0.3155
234.5,0.0015,0.3155
234.601,0.002,0.3155
234.7,0.002,0.316
234.801,0.0005,0.318
234.9,0.002,0.3165
235,0.002,0.317
235.101,0.0005,0.3195
235.201,0.0005,0.32
235.3,0.002,0.318
235.401,0.0005,0.32
235.5,0.002,0.3185
235.601,0.0005,0.3205
235.7,0.0025,0.3195
235.801,0.002,0.3195
235.9,0.0025,0.3165
236.001,0.002,0.318
236.1,0.0025,0.318
236.2,0.002,0.319
236.301,0.002,0.3195
236.4,0.0025,0.3195
236.5,0.0025,0.317
236.6,0.0025,0.316
236.701,0.001,0.3155
236.8,0.0025,0.315
236.901,0.0025,0.317
237,0.0025,0.317
237.1,0.0025,0.318
237.201,0.001,0.32
237.3,0.0025,0.32
237.401,0.0015,0.3215
237.501,0.0025,0.323
237.6,0.0025,0.3245
237.7,0.0025,0.325
237.8,0.002,0.3255
237.9,0.0025,0.3265
238.001,0.0015,0.3285
238.101,0.0025,0.3285
238.2,0.0025,0.329
238.3,0.002,0.33
238.4,0.0025,0.33
238.5,0.0025,0.3305
238.6,0.0025,0.33
238.7,0.002,0.331
238.8,0.0025,0.3315
238.9,0.002,0.332
239.001,0,0.337
239.101,0.002,0.334
239.201,0.002,0.3325
239.301,0.002,0.333
239.401,0.002,0.334
239.5,0.002,0.334
239.601,0.0025,0.3345
239.7,0.0025,0.336
239.8,0.002,0.337
239.901,0.002,0.338
240,0.002,0.338
240.101,0.002,0.339
240.202,0.001,0.341
240.3,0.002,0.3395
240.401,0.002,0.3405
240.499,0.002,0.341
240.599,0.0025,0.341
240.7,0.002,0.3415
240.801,0.002,0.3425
240.901,0.002,0.3425
241,0.0025,0.3435
241.1,0.002,0.3435
241.2,0.002,0.344
241.301,0.002,0.3445
241.401,0.002,0.345
241.5,0.002,0.3455
241.601,0.002,0.346
241.701,0.002,0.347
241.8,0.002,0.3475
241.901,0.002,0.3475
242,0.002,0.3485
242.1,0.002,0.349
242.2,0.002,0.3495
242.299,0.002,0.351
242.4,0.002,0.3515
242.5,0.002,0.351
242.6,0.002,0.3525
242.701,0.002,0.3445
242.801,0.002,0.345
242.9,0.002,0.345
243,0.002,0.346
243.1,0.002,0.347
243.2,0.002,0.3475
243.301,0.0015,0.3485
243.4,0.002,0.3505
243.501,0.002,0.353
243.601,0.002,0.354
243.7,0.002,0.356
243.8,0.002,0.356
243.9,0.002,0.357
244.001,0.002,0.357
244.101,0.002,0.3585
244.201,0.002,0.3595
244.3,0.002,0.3605
244.4,0.002,0.3605
244.5,0.0015,0.3605
244.6,0.002,0.361
244.701,0.0015,0.3615
244.8,0.0015,0.362
244.9,0.002,0.363
245,0.002,0.3635
245.1,0.002,0.3645
245.2,0.002,0.3655
245.301,0.0015,0.3645
245.401,0.002,0.367
245.501,0.0015,0.3675
245.6,0.002,0.3685
245.7,0.0015,0.369
245.801,0.0015,0.3685
245.899,0.0015,0.3725
246.001,0.0015,0.3695
246.101,0.0015,0.3705
246.2,0.002,0.3725
246.301,0.0015,0.3735
246.4,0.002,0.374
246.5,0.002,0.3745
246.601,0.0015,0.3735
246.7,0.0015,0.3755
246.801,0.0015,0.3765
246.9,0.0015,0.3775
247.001,0.0015,0.3765
247.101,0.0015,0.377
247.2,0.0015,0.3825
247.3,0.001,0.381
247.401,0.0015,0.379
247.5,0.0015,0.38
247.601,0.0015,0.3785
247.701,0.0015,0.3815
247.8,0.001,0.385
247.899,0.0015,0.3855
248.001,0.0015,0.3815
248.101,0.0015,0.382
248.201,0.001,0.3845
248.301,0.001,0.3855
248.401,0.001,0.386
248.5,0.001,0.3865
248.601,0.001,0.387
248.7,0.001,0.3885
248.8,0.001,0.389
248.9,0.001,0.39
249.001,0.001,0.388
249.101,0.001,0.389
249.2,0.001,0.389
249.301,0.001,0.39
249.401,0.001,0.3935
249.5,0.001,0.3945
249.6,0.001,0.3955
249.7,0.001,0.396
249.801,0.001,0.394
249.901,0.001,0.395
249.999,0.001,0.402
250.1,0.001,0.3995
250.201,0.001,0.4
250.3,0.001,0.4005
250.401,0.001,0.4015
250.5,0.001,0.402
250.6,0.001,0.4025
250.7,0.001,0.403
250.8,0.001,0.4035
250.901,0.0005,0.401
251.001,0.001,0.404
251.1,0.0005,0.407
251.201,0.001,0.405
251.3,0.001,0.4055
251.401,0.0005,0.406
251.5,0.001,0.4065
251.6,0.001,0.407
251.701,0.001,0.4075
251.8,0,0.411
251.9,0,0.4085
251.999,0,0.4115
252.1,0,0.4095
252.201,0.0005,0.4075
252.301,0.0005,0.4105
252.401,0.0005,0.4105
252.5,0,0.4135
252.6,0,0.4115
252.701,0.0005,0.41
252.801,0.0005,0.4125
252.9,0.0005,0.4135
253.001,0.0005,0.4135
253.1,0,0.417
253.2,0.0005,0.415
253.3,0,0.4155
253.401,0,0.4155
253.5,0,0.415
253.6,0,0.4155
253.7,0,0.416
253.801,0,0.4165
253.9,0,0.4165
254,0,0.417
254.101,0.001,0.415
254.201,0,0.4175
254.3,0,0.419
254.4,0,0.4185
254.5,0,0.4185
254.6,0,0.419
254.701,0,0.417
254.8,0,0.42
254.901,0,0.4175
255.001,0,0.418
255.101,0,0.421
255.2,0,0.421
255.3,0,0.4215
255.401,0,0.4195
255.501,0,0.42
255.6,0,0.422
255.701,0,0.4205
255.801,0,0.421
255.901,0,0.4245
256,0,0.4225
256.101,0,0.422
256.2,0,0.4235
256.301,0,0.4225
256.4,0,0.4255
256.501,-0.0005,0.426
256.6,-0.0005,0.4275
256.701,-0.0005,0.426
256.8,-0.0005,0.428
256.9,-0.0005,0.428
257,-0.0005,0.4275
257.101,0,0.4255
257.201,-0.0005,0.428
257.3,-0.0005,0.428
257.4,-0.0005,0.4285
257.501,0,0.4265
257.6,-0.0005,0.429
257.701,-0.0005,0.4295
257.8,-0.001,0.4305
257.9,-0.001,0.431
258,-0.0005,0.4305
258.1,-0.001,0.431
258.2,-0.001,0.4315
258.301,-0.0005,0.429
258.401,-0.0005,0.4305
258.5,-0.001,0.4325
258.6,-0.001,0.432
258.7,-0.001,0.432
258.801,-0.001,0.4325
258.9,-0.001,0.4325
259,-0.001,0.433
259.101,-0.001,0.432
259.2,-0.001,0.4335
259.301,-0.001,0.4335
259.401,-0.001,0.435
259.5,-0.0015,0.4345
259.601,-0.001,0.435
259.7,-0.001,0.4355
259.8,-0.0015,0.4355
259.9,-0.001,0.4365
260.001,-0.0015,0.437
260.1,-0.0015,0.4375
260.2,-0.0015,0.438
260.3,-0.001,0.438
260.401,-0.001,0.4375
260.5,-0.0015,0.4385
260.601,-0.001,0.4385
260.7,-0.0015,0.439
260.801,-0.001,0.439
260.9,-0.0015,0.4395
261.001,-0.0015,0.44
261.1,-0.002,0.439
261.2,-0.002,0.4355
261.3,-0.0015,0.437
261.401,-0.0015,0.434
261.501,-0.0015,0.4375
261.601,-0.0015,0.4375
261.7,-0.0015,0.438
261.8,-0.0015,0.438
261.901,-0.0015,0.438
262,-0.0015,0.4375
262.1,-0.0015,0.4375
262.2,-0.0015,0.437
262.301,-0.0015,0.438
262.401,-0.0015,0.4375
262.5,-0.002,0.4375
262.6,-0.002,0.4375
262.701,-0.0015,0.438
262.8,-0.002,0.438
262.901,-0.002,0.4385
263,-0.002,0.4395
263.1,-0.002,0.4395
263.2,-0.002,0.4395
263.3,-0.002,0.4395
263.401,-0.002,0.441
263.5,-0.002,0.4415
263.601,-0.002,0.443
263.701,-0.002,0.4425
263.8,-0.0025,0.441
263.9,-0.002,0.4385
264,-0.002,0.435
264.101,-0.002,0.436
264.201,-0.002,0.435
264.301,-0.0025,0.433
264.4,-0.0025,0.432
264.501,-0.0025,0.4315
264.6,-0.0025,0.432
264.7,-0.0025,0.4315
264.8,-0.0025,0.431
264.9,-0.0025,0.431
265.001,-0.0025,0.4315
265.1,-0.0025,0.431
265.201,-0.0025,0.4305
265.301,-0.0025,0.4305
265.402,-0.002,0.431
265.5,-0.003,0.4285
265.6,-0.003,0.4285
265.701,-0.0025,0.43
265.801,-0.003,0.4285
265.901,-0.003,0.4285
266,-0.003,0.426
266.101,-0.003,0.428
266.201,-0.003,0.428
266.3,-0.003,0.428
266.4,-0.003,0.429
266.501,-0.0025,0.4305
266.601,-0.0025,0.431
266.7,-0.003,0.4275
266.801,-0.003,0.4295
266.9,-0.003,0.43
267.001,-0.0025,0.4315
267.101,-0.003,0.432
267.2,-0.003,0.4305
267.301,-0.003,0.4325
267.4,-0.003,0.4305
267.501,-0.003,0.4305
267.601,-0.003,0.43
267.7,-0.003,0.4305
267.8,-0.0035,0.4275
267.9,-0.003,0.4305
268.001,-0.003,0.433
268.101,-0.003,0.434
268.2,-0.0035,0.4315
268.3,-0.003,0.431
268.401,-0.0035,0.433
268.501,-0.0035,0.4325
268.601,-0.0035,0.4295
268.7,-0.0035,0.431
268.8,-0.0035,0.432
268.901,-0.0035,0.4325
269.001,-0.0035,0.434
269.1,-0.0035,0.433
269.201,-0.0035,0.4315
269.3,-0.004,0.4285
269.401,-0.0035,0.432
269.5,-0.004,0.43
269.6,-0.004,0.43
269.7,-0.004,0.431
269.8,-0.004,0.4315
269.901,-0.0035,0.4365
270.001,-0.0035,0.437
270.1,-0.004,0.4345
270.2,-0.0045,0.434
270.299,-0.0045,0.4315
270.4,-0.004,0.4365
270.501,-0.0035,0.4405
270.601,-0.0035,0.441
270.7,-0.0045,0.4375
270.801,-0.004,0.441
270.9,-0.004,0.437
271,-0.0045,0.437
271.101,-0.0035,0.4415
271.201,-0.0035,0.442
271.3,-0.0045,0.4385
271.4,-0.004,0.437
271.501,-0.0045,0.4365
271.6,-0.0045,0.4365
271.701,-0.0045,0.437
271.8,-0.0045,0.435
271.901,-0.0045,0.442
272,-0.0045,0.437
272.1,-0.0045,0.4405
272.201,-0.0045,0.444
272.301,-0.0045,0.443
272.4,-0.0045,0.4355
272.5,-0.0045,0.4385
272.599,-0.0045,0.435
272.7,-0.0045,0.4345
272.8,-0.0045,0.4375
272.901,-0.0045,0.4375
273,-0.0045,0.435
273.1,-0.0045,0.435
273.2,-0.005,0.4475
273.301,-0.005,0.4375
273.401,-0.005,0.4375
273.5,-0.005,0.4375
273.601,-0.0045,0.4405
273.7,-0.005,0.438
273.801,-0.005,0.438
273.9,-0.005,0.438
274,-0.005,0.438
274.101,-0.005,0.4375
274.201,-0.005,0.438
274.3,-0.0035,0.436
274.4,-0.0045,0.4375
274.5,-0.005,0.438
274.601,-0.005,0.4425
274.7,-0.0045,0.44
274.8,-0.0045,0.4405
274.901,-0.0045,0.4405
275,-0.0045,0.441
275.101,-0.005,0.444
275.201,-0.005,0.4445
275.301,-0.0045,0.4415
275.4,-0.003,0.4395
275.5,-0.004,0.4425
275.601,-0.004,0.446
275.701,-0.0045,0.443
275.8,-0.004,0.444
275.9,-0.004,0.4445
276,-0.003,0.443
276.1,-0.004,0.4455
276.201,-0.004,0.4455
276.3,-0.0035,0.445
276.401,-0.004,0.445
276.5,-0.0025,0.4435
276.6,-0.004,0.4455
276.7,-0.0025,0.4445
276.8,-0.0035,0.4465
276.9,-0.0035,0.4465
277.001,-0.0035,0.4465
277.1,-0.0035,0.4465
277.201,-0.0035,0.4465
277.3,-0.0035,0.4465
277.401,-0.0055,0.4525
277.501,-0.003,0.4475
277.6,-0.003,0.4475
277.701,-0.003,0.4475
277.8,-0.0025,0.4465
277.9,-0.003,0.4485
278.001,-0.0045,0.4515
278.1,-0.003,0.4495
278.201,-0.003,0.4495
278.3,-0.003,0.4495
278.401,-0.003,0.4495
278.499,-0.0025,0.449
278.6,-0.003,0.45
278.7,-0.003,0.45
278.801,-0.003,0.4505
278.901,-0.003,0.451
279.001,-0.003,0.451
279.1,-0.0025,0.451
279.2,-0.0025,0.451
279.3,-0.003,0.4525
279.401,-0.003,0.4535
279.5,-0.003,0.454
279.601,-0.0025,0.454
279.701,-0.0025,0.4535
279.8,-0.0025,0.4535
279.9,-0.003,0.4535
280.001,-0.0025,0.4535
280.1,-0.003,0.454
280.2,-0.003,0.455
280.3,-0.0025,0.4555
280.401,-0.003,0.4555
280.5,-0.003,0.456
280.601,-0.003,0.456
280.7,-0.003,0.4565
280.8,-0.003,0.457
280.901,-0.003,0.4575
281,-0.003,0.458
281.101,-0.003,0.4585
281.2,-0.003,0.4595
281.3,-0.003,0.46
281.4,-0.003,0.46
281.5,-0.0025,0.46
281.601,-0.003,0.46
281.7,-0.003,0.46
281.8,-0.0025,0.4605
281.9,-0.003,0.4605
282.001,-0.003,0.4615
282.1,-0.0025,0.463
282.2,-0.003,0.462
282.3,-0.003,0.4615
282.401,-0.003,0.462
282.501,-0.003,0.462
282.6,-0.003,0.4625
282.701,-0.003,0.4625
282.801,-0.003,0.4625
282.9,-0.003,0.463
283,-0.003,0.4635
283.101,-0.003,0.464
283.201,-0.0025,0.464
283.3,-0.0025,0.4645
283.4,-0.003,0.465
283.501,-0.003,0.465
283.6,-0.003,0.466
283.7,-0.003,0.466
283.8,-0.003,0.466
283.9,-0.0025,0.468
284,-0.0025,0.468
284.1,-0.003,0.468
284.2,-0.003,0.468
284.301,-0.003,0.4665
284.4,-0.003,0.4675
284.501,-0.0035,0.467
284.6,-0.0025,0.469
284.7,-0.003,0.4715
284.801,-0.003,0.4685
284.9,-0.003,0.4705
285.001,-0.003,0.469
285.1,-0.003,0.471
285.201,-0.003,0.4705
285.3,-0.003,0.473
285.401,-0.003,0.4735
285.5,-0.003,0.474
285.601,-0.003,0.4735
285.7,-0.003,0.4745
285.801,-0.003,0.473
285.901,-0.0025,0.4755
286,-0.003,0.4755
286.1,-0.003,0.476
286.201,-0.003,0.475
286.3,-0.003,0.477
286.401,-0.003,0.477
286.5,-0.0035,0.48
286.6,-0.003,0.4785
286.7,-0.003,0.4785
286.801,-0.003,0.477
286.901,-0.003,0.4795
287,-0.003,0.4795
287.1,-0.003,0.479
287.201,-0.003,0.478
287.301,-0.003,0.48
287.401,-0.003,0.4825
287.5,-0.003,0.4815
287.601,-0.0035,0.4815
287.7,-0.003,0.482
287.801,-0.003,0.48
287.9,-0.0035,0.483
288,-0.0035,0.484
288.101,-0.0035,0.4845
288.2,-0.0035,0.4865
288.3,-0.0035,0.487
288.401,-0.0035,0.4845
288.5,-0.003,0.4885
288.601,-0.003,0.482
288.701,-0.0035,0.4845
288.8,-0.003,0.488
288.901,-0.003,0.4855
289,-0.003,0.4855
289.1,-0.0035,0.486
289.201,-0.003,0.4865
289.3,-0.0035,0.49
289.4,-0.0035,0.4875
289.501,-0.0035,0.4845
289.601,-0.0035,0.489
289.7,-0.003,0.4925
289.8,-0.0035,0.4895
289.9,-0.0035,0.4905
290,-0.0035,0.491
290.101,-0.0035,0.4885
290.2,-0.0035,0.4925
290.301,-0.003,0.4925
290.4,-0.003,0.4925
290.5,-0.0035,0.4865
290.601,-0.0035,0.49
290.701,-0.0035,0.4935
290.8,-0.003,0.494
290.901,-0.003,0.4945
291,-0.0035,0.4945
291.101,-0.0045,0.495
291.201,-0.0035,0.4925
291.3,-0.003,0.496
291.401,-0.0035,0.4935
291.5,-0.003,0.4965
291.601,-0.004,0.496
291.7,-0.004,0.4995
291.8,-0.0035,0.4975
291.901,-0.0035,0.495
292,-0.0035,0.498
292.101,-0.004,0.4985
292.2,-0.004,0.499
292.301,-0.004,0.4995
292.401,-0.0035,0.501
292.5,-0.004,0.504
292.601,-0.004,0.5015
292.7,-0.0045,0.5045
292.8,-0.004,0.502
292.901,-0.0035,0.499
293.001,-0.004,0.5025
293.1,-0.004,0.5035
293.2,-0.004,0.504
293.3,-0.004,0.5045
293.401,-0.004,0.5045
293.5,-0.0045,0.509
293.6,-0.004,0.506
293.701,-0.004,0.506
293.8,-0.004,0.5065
293.9,-0.0045,0.507
294.001,-0.004,0.508
294.101,-0.004,0.505
294.201,-0.0045,0.509
294.3,-0.0045,0.51
294.401,-0.0045,0.507
294.5,-0.0045,0.506
294.601,-0.0045,0.506
294.7,-0.0045,0.5065
294.799,-0.005,0.509
294.9,-0.0045,0.5075
295.001,-0.0045,0.508
295.1,-0.005,0.5105
295.2,-0.0045,0.5085
295.3,-0.0045,0.5065
295.401,-0.0045,0.5055
295.501,-0.0045,0.5085
295.601,-0.0045,0.5075
295.7,-0.005,0.5105
295.801,-0.005,0.5075
295.901,-0.005,0.509
296,-0.005,0.511
296.1,-0.0055,0.5115
296.201,-0.005,0.5095
296.3,-0.005,0.5135
296.401,-0.005,0.5115
296.5,-0.005,0.513
296.6,-0.005,0.5115
296.701,-0.005,0.5115
296.8,-0.005,0.5115
296.9,-0.005,0.507
297.001,-0.005,0.5135
297.1,-0.005,0.5135
297.201,-0.005,0.5135
297.301,-0.005,0.5155
297.4,-0.005,0.5165
297.501,-0.005,0.5175
297.601,-0.005,0.516
297.701,-0.005,0.5195
297.8,-0.0055,0.5215
297.9,-0.0055,0.5215
298,-0.0055,0.52
298.1,-0.0055,0.5185
298.201,-0.0055,0.517
298.3,-0.0055,0.517
298.401,-0.005,0.516
298.501,-0.0055,0.5165
298.6,-0.0055,0.5175
298.7,-0.0055,0.516
298.801,-0.005,0.514
298.9,-0.0055,0.517
299.001,-0.0055,0.517
299.1,-0.0055,0.5175
299.201,-0.005,0.5165
299.3,-0.0055,0.518
299.401,-0.005,0.516
299.5,-0.0055,0.518
299.601,-0.005,0.5165
299.701,-0.005,0.517
299.8,-0.006,0.52
299.901,-0.0055,0.52
300,-0.0055,0.5205
300.101,-0.0055,0.52
300.2,-0.006,0.521
300.301,-0.0055,0.521
300.401,-0.0055,0.5215
300.5,-0.0055,0.522
300.601,-0.0055,0.5205
300.702,-0.0055,0.5205
300.8,-0.006,0.522
300.9,-0.006,0.522
301,-0.0055,0.523
301.101,-0.006,0.5225
301.2,-0.0055,0.523
301.3,-0.0055,0.523
301.401,-0.0055,0.522
301.501,-0.006,0.5235
301.6,-0.006,0.5235
301.7,-0.006,0.5235
301.8,-0.006,0.5235
301.9,-0.006,0.523
302.001,-0.006,0.5235
302.101,-0.006,0.523
302.2,-0.006,0.523
302.3,-0.006,0.523
302.401,-0.0055,0.5225
302.501,-0.006,0.5235
302.6,-0.0065,0.5235
302.7,-0.006,0.5235
302.8,-0.006,0.5235
302.9,-0.006,0.524
303,-0.006,0.525
303.101,-0.006,0.525
303.2,-0.006,0.5245
303.3,-0.006,0.525
303.401,-0.006,0.524
303.501,-0.006,0.525
303.601,-0.006,0.5255
303.701,-0.006,0.526
303.8,-0.006,0.5265
303.9,-0.006,0.5265
304,-0.006,0.5265
304.101,-0.006,0.5265
304.2,-0.0065,0.5275
304.301,-0.006,0.5275
304.4,-0.0065,0.5275
304.501,-0.006,0.5275
304.601,-0.0065,0.528
304.7,-0.0065,0.5275
304.801,-0.0065,0.5295
304.9,-0.0065,0.5295
305,-0.0065,0.53
305.101,-0.0065,0.5305
305.2,-0.0065,0.531
305.301,-0.0065,0.531
305.4,-0.007,0.531
305.5,-0.0065,0.532
305.6,-0.0065,0.532
305.701,-0.0065,0.532
305.801,-0.0065,0.5325
305.9,-0.007,0.532
306.001,-0.0065,0.534
306.101,-0.0065,0.534
306.2,-0.007,0.5335
306.3,-0.0065,0.5345
306.4,-0.0065,0.535
306.501,-0.0065,0.5355
306.6,-0.0065,0.535
306.701,-0.0065,0.5345
306.8,-0.0065,0.5355
306.901,-0.007,0.535
307,-0.007,0.535
307.1,-0.007,0.5335
307.201,-0.0065,0.536
307.3,-0.007,0.5345
307.401,-0.007,0.537
307.5,-0.0075,0.5355
307.6,-0.007,0.537
307.7,-0.007,0.537
307.8,-0.007,0.5375
307.899,-0.0075,0.5365
308,-0.007,0.5375
308.101,-0.007,0.5385
308.201,-0.007,0.538
308.301,-0.007,0.5385
308.4,-0.007,0.5395
308.5,-0.007,0.539
308.601,-0.007,0.5395
308.701,-0.0065,0.541
308.801,-0.007,0.54
308.9,-0.007,0.5405
309,-0.007,0.54
309.101,-0.0065,0.5405
309.201,-0.007,0.5395
309.3,-0.007,0.54
309.401,-0.0065,0.541
309.501,-0.007,0.5415
309.601,-0.007,0.5405
309.701,-0.007,0.5405
309.8,-0.007,0.5405
309.901,-0.007,0.542
310.001,-0.007,0.5425
310.101,-0.0075,0.5415
310.2,-0.0075,0.542
310.3,-0.007,0.542
310.4,-0.0075,0.544
310.501,-0.007,0.544
310.601,-0.0075,0.543
310.7,-0.0075,0.5445
310.8,-0.0075,0.5435
310.901,-0.007,0.545
311,-0.0075,0.5445
311.1,-0.0075,0.544
311.2,-0.0075,0.5445
311.3,-0.008,0.543
311.4,-0.0075,0.545
311.5,-0.0075,0.5455
311.6,-0.0075,0.5435
311.701,-0.0075,0.546
311.8,-0.008,0.544
311.9,-0.0075,0.5445
312.001,-0.0075,0.5465
312.1,-0.008,0.547
312.201,-0.007,0.549
312.301,-0.0075,0.547
312.401,-0.0075,0.5465
312.5,-0.008,0.5455
312.6,-0.008,0.5475
312.7,-0.008,0.5455
312.8,-0.008,0.546
312.9,-0.008,0.548
313,-0.008,0.5505
313.101,-0.0075,0.5495
313.2,-0.008,0.5485
313.3,-0.008,0.549
313.401,-0.0075,0.551
313.501,-0.008,0.5495
313.601,-0.008,0.549
313.7,-0.008,0.5475
313.8,-0.008,0.5505
313.901,-0.008,0.5505
314,-0.008,0.5485
314.1,-0.008,0.5505
314.201,-0.008,0.5505
314.3,-0.008,0.549
314.4,-0.008,0.55
314.5,-0.008,0.552
314.6,-0.008,0.552
314.7,-0.008,0.555
314.801,-0.0075,0.5545
314.901,-0.0075,0.5545
315,-0.008,0.5535
315.1,-0.008,0.5535
315.2,-0.008,0.553
315.301,-0.008,0.553
315.4,-0.008,0.553
315.5,-0.008,0.553
315.6,-0.008,0.553
315.701,-0.008,0.5535
315.8,-0.008,0.5535
315.901,-0.008,0.556
316.001,-0.008,0.556
316.1,-0.008,0.5545
316.201,-0.008,0.5565
316.3,-0.008,0.555
316.401,-0.008,0.5565
316.501,-0.008,0.555
316.6,-0.0085,0.552
316.7,-0.0085,0.553
316.8,-0.0085,0.553
316.9,-0.008,0.5565
317,-0.008,0.5565
317.101,-0.008,0.559
317.201,-0.008,0.559
317.3,-0.0085,0.557
317.4,-0.0085,0.5565
317.501,-0.008,0.5585
317.601,-0.0085,0.557
317.7,-0.0085,0.557
317.801,-0.008,0.559
317.901,-0.008,0.559
318,-0.0085,0.557
318.1,-0.0085,0.5575
318.201,-0.0085,0.5575
318.3,-0.0085,0.558
318.4,-0.0085,0.5585
318.501,-0.0085,0.561
318.601,-0.0085,0.561
318.701,-0.008,0.563
318.8,-0.0085,0.5595
318.901,-0.0085,0.5615
319,-0.0085,0.5595
319.1,-0.0085,0.5595
319.2,-0.0085,0.56
319.3,-0.009,0.557
319.4,-0.0085,0.56
319.501,-0.0085,0.562
319.6,-0.0085,0.56
319.7,-0.0085,0.5605
319.8,-0.0085,0.561
319.9,-0.0085,0.561
320,-0.0085,0.561
320.101,-0.0085,0.5615
320.2,-0.0085,0.5615
320.3,-0.009,0.5615
320.399,-0.009,0.5585
320.501,-0.0085,0.5645
320.6,-0.009,0.562
320.701,-0.0085,0.565
320.8,-0.009,0.5625
320.901,-0.0085,0.565
321.001,-0.009,0.562
321.1,-0.0095,0.5595
321.2,-0.009,0.563
321.3,-0.009,0.563
321.401,-0.009,0.5665
321.501,-0.009,0.5635
321.601,-0.009,0.5635
321.7,-0.0095,0.5615
321.8,-0.0095,0.5615
321.9,-0.0095,0.5615
322.001,-0.009,0.5645
322.1,-0.0095,0.562
322.201,-0.0085,0.568
322.301,-0.009,0.5655
322.4,-0.009,0.5655
322.5,-0.009,0.565
322.6,-0.009,0.563
322.7,-0.0095,0.563
322.801,-0.0085,0.566
322.9,-0.0095,0.563
323,-0.0095,0.5635
323.101,-0.009,0.5665
323.201,-0.009,0.566
323.301,-0.0095,0.564
323.4,-0.0095,0.564
323.501,-0.0095,0.564
323.6,-0.0095,0.564
323.7,-0.01,0.564
323.8,-0.0095,0.5615
323.9,-0.0095,0.5615
324,-0.0095,0.5615
324.101,-0.0095,0.564
324.2,-0.01,0.5645
324.301,-0.01,0.5645
324.4,-0.01,0.565
324.501,-0.01,0.5645
324.6,-0.009,0.5625
324.7,-0.01,0.5645
324.8,-0.01,0.565
324.901,-0.0095,0.568
325.001,-0.01,0.5655
325.101,-0.01,0.5655
325.2,-0.01,0.566
325.301,-0.01,0.566
325.4,-0.01,0.566
325.5,-0.01,0.566
325.601,-0.0095,0.569
325.701,-0.0095,0.569
325.8,-0.01,0.567
325.9,-0.01,0.567
326,-0.01,0.5665
326.101,-0.0095,0.5695
326.2,-0.01,0.567
326.301,-0.01,0.5695
326.401,-0.01,0.5675
326.5,-0.01,0.5675
326.6,-0.0095,0.568
326.7,-0.01,0.5685
326.801,-0.01,0.571
326.9,-0.0095,0.5685
327.001,-0.0095,0.5685
327.1,-0.0095,0.569
327.2,-0.0095,0.569
327.3,-0.0095,0.5695
327.4,-0.0095,0.57
327.501,-0.01,0.5725
327.601,-0.01,0.5725
327.701,-0.0095,0.5705
327.8,-0.0095,0.5705
327.9,-0.0095,0.5705
328,-0.008,0.568
328.1,-0.0095,0.571
328.201,-0.01,0.5735
328.301,-0.01,0.574
328.4,-0.0095,0.5715
328.501,-0.01,0.5745
328.601,-0.0095,0.572
328.7,-0.008,0.5705
328.8,-0.009,0.5725
328.9,-0.0095,0.5715
329.001,-0.009,0.571
329.1,-0.0095,0.5715
329.201,-0.0105,0.574
329.3,-0.009,0.5715
329.4,-0.009,0.5715
329.5,-0.009,0.572
329.6,-0.0075,0.57
329.7,-0.0075,0.57
329.8,-0.0075,0.57
329.9,-0.008,0.5705
330,-0.009,0.5725
330.1,-0.009,0.5725
330.2,-0.009,0.573
330.301,-0.01,0.5755
330.401,-0.01,0.5755
330.5,-0.009,0.5735
330.601,-0.01,0.576
330.7,-0.0085,0.574
330.799,-0.0075,0.572
330.9,-0.0085,0.5745
331.001,-0.0085,0.5745
331.1,-0.0085,0.5745
331.2,-0.0085,0.575
331.302,-0.01,0.5775
331.4,-0.0085,0.575
331.5,-0.0075,0.5735
331.6,-0.008,0.575
331.701,-0.0085,0.5755
331.8,-0.008,0.5755
331.9,-0.008,0.5755
332,-0.0075,0.574
332.1,-0.008,0.5805
332.2,-0.0085,0.576
332.3,-0.008,0.5765
332.401,-0.0095,0.5785
332.501,-0.009,0.579
332.601,-0.0095,0.579
332.701,-0.0095,0.5795
332.801,-0.008,0.5775
332.9,-0.008,0.5775
333,-0.008,0.578
333.1,-0.008,0.578
333.2,-0.008,0.5785
333.3,-0.008,0.5805
333.401,-0.008,0.5785
333.5,-0.008,0.579
333.6,-0.008,0.579
333.7,-0.008,0.5795
333.801,-0.009,0.581
333.9,-0.008,0.5795
334.001,-0.0085,0.586
334.101,-0.0085,0.5815
334.2,-0.0075,0.58
334.3,-0.008,0.5805
334.401,-0.008,0.5805
334.5,-0.0075,0.5795
334.6,-0.008,0.581
334.701,-0.008,0.581
334.8,-0.008,0.581
334.901,-0.008,0.581
335.001,-0.008,0.5815
335.1,-0.008,0.5815
335.2,-0.008,0.582
335.301,-0.0085,0.5835
335.4,-0.0075,0.5815
335.5,-0.008,0.5825
335.6,-0.008,0.5825
335.7,-0.008,0.583
335.801,-0.0085,0.5855
335.9,-0.008,0.5845
336,-0.0075,0.584
336.101,-0.008,0.585
336.2,-0.008,0.5855
336.301,-0.0075,0.5855
336.4,-0.0075,0.585
336.5,-0.008,0.5855
336.6,-0.008,0.586
336.701,-0.008,0.588
336.801,-0.008,0.587
336.9,-0.008,0.5865
337,-0.008,0.5875
337.1,-0.008,0.587
337.201,-0.008,0.5875
337.301,-0.008,0.588
337.4,-0.008,0.5875
337.501,-0.008,0.588
337.6,-0.008,0.588
337.701,-0.008,0.5895
337.8,-0.008,0.5885
337.901,-0.008,0.5885
338,-0.008,0.5885
338.1,-0.008,0.5885
338.2,-0.008,0.589
338.301,-0.008,0.5895
338.4,-0.008,0.59
338.501,-0.008,0.59
338.6,-0.008,0.59
338.7,-0.008,0.59
338.8,-0.008,0.5905
338.9,-0.008,0.5905
339.001,-0.008,0.5915
339.101,-0.008,0.591
339.2,-0.008,0.5905
339.301,-0.008,0.591
339.401,-0.008,0.591
339.5,-0.008,0.5915
339.6,-0.008,0.592
339.7,-0.008,0.592
339.8,-0.008,0.592
339.9,-0.0075,0.5925
340,-0.0075,0.593
340.101,-0.008,0.593
340.2,-0.008,0.5945
340.301,-0.008,0.5945
340.401,-0.008,0.5945
340.501,-0.008,0.594
340.6,-0.008,0.594
340.7,-0.008,0.5945
340.8,-0.008,0.5945
340.901,-0.008,0.594
341.001,-0.008,0.5945
341.101,-0.0085,0.5955
341.201,-0.008,0.5945
341.302,-0.008,0.5955
341.4,-0.008,0.595
341.5,-0.008,0.5955
341.6,-0.008,0.5955
341.7,-0.0085,0.5955
341.801,-0.0085,0.5965
341.9,-0.008,0.5955
342.001,-0.0085,0.5965
342.101,-0.008,0.596
342.2,-0.008,0.5965
342.3,-0.0085,0.5965
342.4,-0.008,0.5965
342.501,-0.0085,0.5975
342.601,-0.0085,0.5975
342.701,-0.0085,0.5975
342.801,-0.0085,0.598
342.9,-0.0085,0.5985
343,-0.0085,0.5985
343.1,-0.008,0.5985
343.201,-0.0085,0.5995
343.3,-0.008,0.599
343.4,-0.0085,0.599
343.501,-0.0085,0.599
343.6,-0.008,0.5995
343.7,-0.008,0.6
343.801,-0.008,0.6
343.9,-0.008,0.6
344.001,-0.0085,0.601
344.1,-0.0085,0.6005
344.2,-0.0085,0.6005
344.3,-0.008,0.601
344.401,-0.0085,0.6015
344.501,-0.008,0.6015
344.6,-0.008,0.6015
344.7,-0.008,0.6015
344.8,-0.008,0.602
344.901,-0.008,0.6025
345,-0.008,0.6025
345.1,-0.008,0.603
345.201,-0.0085,0.6035
345.301,-0.008,0.6035
345.4,-0.008,0.604
345.5,-0.008,0.604
345.6,-0.008,0.604
345.701,-0.0085,0.6045
345.8,-0.008,0.6045
345.901,-0.008,0.605
346,-0.008,0.6055
346.1,-0.008,0.6055
346.2,-0.008,0.6055
346.3,-0.008,0.6055
346.401,-0.0085,0.606
346.5,-0.0085,0.607
346.6,-0.008,0.6065
346.7,-0.0085,0.6065
346.801,-0.008,0.6065
346.9,-0.0085,0.607
347.001,-0.0085,0.6095
347.101,-0.0085,0.6075
347.201,-0.0085,0.6075
347.3,-0.0085,0.6075
347.401,-0.0085,0.608
347.5,-0.0085,0.608
347.6,-0.0085,0.6085
347.701,-0.0085,0.6085
347.801,-0.008,0.6085
347.9,-0.0085,0.6085
348,-0.0085,0.609
348.1,-0.0085,0.609
348.2,-0.008,0.6095
348.301,-0.008,0.6095
348.4,-0.008,0.61
348.5,-0.0085,0.61
348.601,-0.008,0.61
348.7,-0.008,0.61
348.799,-0.008,0.611
348.9,-0.0085,0.611
348.999,-0.0085,0.6115
349.101,-0.0085,0.6115
349.201,-0.0085,0.612
349.3,-0.008,0.612
349.401,-0.0085,0.612
349.5,-0.008,0.6125
349.6,-0.008,0.6125
349.7,-0.0085,0.613
349.801,-0.0085,0.613
349.9,-0.008,0.6135
350.001,-0.0085,0.613
350.101,-0.008,0.6135
350.2,-0.008,0.6135
350.301,-0.0085,0.6135
350.4,-0.008,0.614
350.499,-0.0085,0.615
350.599,-0.0085,0.615
350.7,-0.0085,0.6145
350.8,-0.008,0.6145
350.9,-0.008,0.615
351.001,-0.0085,0.615
351.1,-0.008,0.6155
351.2,-0.008,0.6155
351.301,-0.0085,0.6155
351.4,-0.0085,0.616
351.5,-0.0085,0.616
351.601,-0.0085,0.616
351.7,-0.0085,0.6165
351.801,-0.0085,0.617
351.9,-0.0085,0.617
352,-0.0085,0.617
352.1,-0.0085,0.6175
352.2,-0.0085,0.6175
352.301,-0.0085,0.618
352.4,-0.0085,0.6195
352.5,-0.0085,0.6195
352.601,-0.0085,0.6185
352.7,-0.0085,0.62
352.8,-0.0085,0.6185
352.9,-0.0085,0.619
353,-0.0085,0.6195
353.1,-0.0085,0.6195
353.201,-0.0085,0.6195
353.301,-0.0085,0.62
353.4,-0.0085,0.62
353.501,-0.0085,0.6195
353.601,-0.0085,0.62
353.699,-0.0085,0.6225
353.8,-0.0085,0.621
353.901,-0.0085,0.621
354,-0.0085,0.622
354.1,-0.0085,0.622
354.2,-0.0085,0.6225
354.299,-0.0085,0.6245
354.4,-0.0085,0.623
354.5,-0.009,0.6235
354.601,-0.009,0.627
354.7,-0.009,0.627
354.8,-0.009,0.6275
354.901,-0.0085,0.6265
355.001,-0.0085,0.6265
355.1,-0.009,0.628
355.201,-0.0085,0.627
355.301,-0.0085,0.6275
355.401,-0.009,0.6275
355.5,-0.009,0.629
355.601,-0.0085,0.629
355.7,-0.009,0.6295
355.8,-0.009,0.6295
355.9,-0.0085,0.63
356.001,-0.0085,0.629
356.101,-0.009,0.6295
356.201,-0.0085,0.6315
356.3,-0.0085,0.633
356.4,-0.0085,0.632
356.501,-0.0085,0.6325
356.6,-0.0085,0.633
356.701,-0.0085,0.633
356.8,-0.0085,0.6335
356.9,-0.0085,0.6335
357,-0.0085,0.6335
357.099,-0.009,0.6355
357.201,-0.009,0.6325
357.301,-0.009,0.6345
357.4,-0.009,0.6345
357.5,-0.0085,0.6345
357.601,-0.009,0.633
357.701,-0.0085,0.635
357.8,-0.0085,0.6365
357.9,-0.0085,0.6365
358,-0.0085,0.6355
358.101,-0.009,0.6355
358.2,-0.0085,0.636
358.301,-0.009,0.6345
358.401,-0.0085,0.6365
358.5,-0.009,0.634
358.601,-0.009,0.635
358.7,-0.0085,0.637
358.801,-0.0085,0.637
358.9,-0.0085,0.6375
359.001,-0.009,0.6365
359.1,-0.0085,0.638
359.199,-0.009,0.6395
359.3,-0.0085,0.6385
359.401,-0.0085,0.6385
359.5,-0.009,0.6385
359.599,-0.009,0.6405
359.7,-0.008,0.6395
359.8,-0.0095,0.6395
359.901,-0.008,0.64
360,-0.009,0.653
360.101,-0.009,0.6535
360.2,-0.0085,0.6565
360.301,-0.008,0.657
360.4,-0.009,0.658
360.501,-0.009,0.657
360.601,-0.0085,0.659
360.7,-0.009,0.659
360.801,-0.009,0.6595
360.9,-0.009,0.66
361,-0.009,0.6605
361.101,-0.0085,0.6595
361.201,-0.009,0.66
361.301,-0.009,0.6615
361.4,-0.009,0.662
361.5,-0.009,0.6625
361.601,-0.009,0.6625
361.7,-0.0095,0.663
361.801,-0.0085,0.662
361.901,-0.0095,0.664
362.001,-0.0095,0.664
362.1,-0.0095,0.666
362.2,-0.0095,0.6665
362.3,-0.0095,0.6665
362.4,-0.0095,0.665
362.501,-0.0095,0.6655
362.601,-0.0095,0.666
362.7,-0.0095,0.6665
362.801,-0.01,0.665
362.901,-0.0095,0.667
363,-0.0095,0.667
363.101,-0.0095,0.6675
363.2,-0.01,0.669
363.3,-0.0095,0.668
363.401,-0.0095,0.668
363.501,-0.0095,0.6685
363.6,-0.0095,0.6685
363.701,-0.009,0.667
363.801,-0.0095,0.669
363.9,-0.0095,0.669
364.001,-0.009,0.6675
364.101,-0.0095,0.668
364.2,-0.0095,0.67
364.301,-0.0095,0.6685
364.401,-0.0095,0.6685
364.5,-0.0095,0.6705
364.601,-0.0095,0.6695
364.703,-0.009,0.6665
364.801,-0.0095,0.67
364.901,-0.0095,0.67
365.001,-0.01,0.669
365.1,-0.01,0.6725
365.201,-0.0095,0.6705
365.301,-0.01,0.6735
365.4,-0.0105,0.6745
365.5,-0.01,0.6735
365.6,-0.0105,0.6755
365.701,-0.01,0.6745
365.8,-0.01,0.6745
365.9,-0.01,0.6745
366.001,-0.01,0.6745
366.1,-0.01,0.6745
366.2,-0.01,0.675
366.3,-0.01,0.675
366.401,-0.01,0.7255
366.5,-0.01,0.7285
366.6,-0.01,0.7285
366.701,-0.01,0.727
366.8,-0.01,0.7295
366.901,-0.0105,0.7295
367,-0.0105,0.7315
367.1,-0.0105,0.7305
367.2,-0.0105,0.7305
367.301,-0.01,0.73
367.4,-0.0105,0.731
367.5,-0.0105,0.7305
367.601,-0.01,0.727
367.7,-0.0105,0.73
367.8,-0.0105,0.73
367.9,-0.0105,0.7305
368.001,-0.0105,0.7305
368.1,-0.0105,0.732
368.2,-0.0105,0.7325
368.301,-0.0105,0.7315
368.4,-0.0105,0.7315
368.501,-0.0105,0.7315
368.6,-0.0105,0.732
368.701,-0.0105,0.7325
368.8,-0.011,0.734
368.9,-0.0105,0.733
369,-0.0105,0.7335
369.1,-0.0105,0.733
369.2,-0.0105,0.7335
369.3,-0.0105,0.7335
369.401,-0.01,0.732
369.5,-0.0105,0.734
369.601,-0.0105,0.733
369.7,-0.011,0.7345
369.801,-0.0105,0.733
369.901,-0.0105,0.7345
370,-0.011,0.7345
370.101,-0.0105,0.7335
370.201,-0.011,0.7355
370.3,-0.0105,0.7355
370.401,-0.0105,0.7345
370.5,-0.011,0.736
370.6,-0.011,0.7365
370.701,-0.011,0.737
370.8,-0.011,0.737
370.9,-0.011,0.737
371.001,-0.0105,0.736
371.101,-0.0105,0.736
371.199,-0.011,0.738
371.301,-0.0105,0.7365
371.4,-0.011,0.7375
371.501,-0.011,0.738
371.601,-0.011,0.738
371.7,-0.011,0.7385
371.8,-0.011,0.7385
371.901,-0.0105,0.7375
372.001,-0.011,0.7385
372.1,-0.011,0.739
372.201,-0.011,0.738
372.3,-0.011,0.739
372.401,-0.011,0.74
372.501,-0.011,0.74
372.6,-0.011,0.7405
372.701,-0.011,0.741
372.8,-0.011,0.741
372.9,-0.011,0.7415
373.001,-0.011,0.7405
373.101,-0.011,0.7415
373.201,-0.011,0.742
373.3,-0.011,0.7425
373.4,-0.011,0.7425
373.5,-0.011,0.7425
373.6,-0.011,0.743
373.7,-0.011,0.743
373.801,-0.011,0.743
373.9,-0.011,0.7435
374.001,-0.011,0.7435
374.1,-0.011,0.7435
374.201,-0.011,0.743
374.301,-0.011,0.7435
374.401,-0.011,0.7435
374.5,-0.0115,0.7435
374.6,-0.0115,0.7435
374.7,-0.0115,0.7435
374.8,-0.011,0.744
374.9,-0.0115,0.744
375.001,-0.0115,0.744
375.1,-0.0115,0.7445
375.2,-0.0115,0.7445
375.3,-0.0115,0.745
375.4,-0.0115,0.745
375.5,-0.0115,0.745
375.6,-0.0115,0.7455
375.7,-0.0115,0.7455
375.801,-0.011,0.745
375.9,-0.0115,0.7455
376,-0.0115,0.7455
376.101,-0.0115,0.7455
376.2,-0.0115,0.7465
376.3,-0.0115,0.7465
376.401,-0.0115,0.747
376.501,-0.011,0.7465
376.6,-0.0115,0.747
376.701,-0.0115,0.747
376.8,-0.0115,0.747
376.9,-0.0115,0.7475
377.001,-0.0115,0.747
377.101,-0.0115,0.747
377.2,-0.012,0.7475
377.301,-0.0115,0.748
377.4,-0.0115,0.748
377.501,-0.0115,0.7475
377.601,-0.0115,0.7475
377.7,-0.0115,0.748
377.801,-0.0115,0.7485
377.9,-0.012,0.7485
378,-0.0115,0.7485
378.101,-0.0115,0.749
378.2,-0.0115,0.749
378.301,-0.0115,0.749
378.401,-0.011,0.749
378.501,-0.0115,0.749
378.601,-0.0115,0.7495
378.701,-0.012,0.75
378.8,-0.0115,0.75
378.901,-0.0115,0.75
379.001,-0.0115,0.75
379.101,-0.0115,0.7505
379.2,-0.012,0.751
379.3,-0.012,0.751
379.4,-0.012,0.751
379.5,-0.012,0.7515
379.601,-0.0115,0.7515
379.701,-0.012,0.752
379.801,-0.012,0.752
379.901,-0.012,0.7525
380,-0.012,0.7525
380.1,-0.012,0.753
380.201,-0.012,0.7535
380.3,-0.012,0.753
380.402,-0.0115,0.7535
380.499,-0.0125,0.7535
380.601,-0.012,0.754
380.701,-0.012,0.754
380.8,-0.012,0.754
380.9,-0.012,0.7545
381.001,-0.012,0.755
381.1,-0.012,0.755
381.2,-0.012,0.7555
381.3,-0.0125,0.7555
381.4,-0.012,0.7555
381.5,-0.012,0.756
381.601,-0.012,0.756
381.7,-0.012,0.756
381.8,-0.012,0.7565
381.901,-0.012,0.7565
382,-0.0125,0.7565
382.101,-0.012,0.757
382.2,-0.012,0.757
382.301,-0.012,0.7575
382.401,-0.0115,0.7575
382.5,-0.012,0.758
382.601,-0.012,0.758
382.701,-0.0125,0.7585
382.801,-0.0125,0.7585
382.9,-0.0125,0.759
383,-0.0125,0.759
383.099,-0.0125,0.759
383.2,-0.0125,0.7595
383.301,-0.012,0.76
383.4,-0.0125,0.76
383.5,-0.012,0.7605
383.6,-0.0125,0.7605
383.7,-0.0125,0.7605
383.8,-0.0125,0.761
383.901,-0.0125,0.761
384,-0.0125,0.761
384.1,-0.0125,0.7615
384.201,-0.0125,0.7615
384.3,-0.0125,0.762
384.401,-0.0125,0.762
384.5,-0.0125,0.762
384.6,-0.0125,0.762
384.701,-0.0125,0.7625
384.8,-0.0125,0.7625
384.9,-0.0125,0.7625
385,-0.0125,0.7625
385.101,-0.0125,0.7625
385.2,-0.0125,0.763
385.301,-0.012,0.7625
385.401,-0.0125,0.763
385.5,-0.0125,0.7635
385.6,-0.0125,0.7635
385.701,-0.012,0.7635
385.801,-0.0125,0.764
385.9,-0.0125,0.7645
386.001,-0.0125,0.7645
386.1,-0.0125,0.765
386.201,-0.0125,0.765
386.3,-0.0125,0.765
386.4,-0.0125,0.7655
386.5,-0.0125,0.7655
386.601,-0.0125,0.7655
386.7,-0.0125,0.7655
386.8,-0.0125,0.766
386.9,-0.0125,0.766
387.001,-0.0125,0.7665
387.1,-0.0125,0.767
387.201,-0.0125,0.767
387.3,-0.0125,0.7675
387.401,-0.0125,0.7675
387.5,-0.0125,0.7675
387.601,-0.0125,0.7675
387.7,-0.0125,0.7675
387.802,-0.012,0.7665
387.901,-0.0125,0.767
388,-0.013,0.767
388.1,-0.013,0.767
388.2,-0.013,0.7675
388.3,-0.013,0.7675
388.401,-0.0125,0.7685
388.5,-0.0125,0.7685
388.599,-0.0135,0.768
388.701,-0.0125,0.7695
388.8,-0.013,0.7695
388.901,-0.013,0.7705
389,-0.013,0.771
389.101,-0.013,0.771
389.2,-0.013,0.7715
389.301,-0.013,0.772
389.4,-0.0135,0.7715
389.5,-0.013,0.773
389.6,-0.0125,0.7725
389.701,-0.013,0.7735
389.8,-0.0125,0.7735
389.9,-0.013,0.774
390.001,-0.013,0.774
390.1,-0.0135,0.7735
390.2,-0.013,0.7745
390.301,-0.0125,0.775
390.401,-0.013,0.7755
390.5,-0.013,0.775
390.6,-0.013,0.7755
390.7,-0.013,0.776
390.801,-0.013,0.776
390.9,-0.013,0.776
391.001,-0.0135,0.7765
391.1,-0.0135,0.777
391.2,-0.0135,0.777
391.3,-0.0135,0.7775
391.4,-0.0135,0.7775
391.501,-0.013,0.7785
391.6,-0.0135,0.778
391.701,-0.013,0.779
391.801,-0.0135,0.778
391.901,-0.0135,0.7785
392,-0.0135,0.779
392.101,-0.0135,0.779
392.2,-0.0135,0.779
392.301,-0.0135,0.779
392.4,-0.0135,0.7795
392.501,-0.013,0.7805
392.601,-0.0135,0.78
392.701,-0.0135,0.7805
392.8,-0.0135,0.781
392.9,-0.0135,0.781
393.001,-0.0135,0.781
393.1,-0.0135,0.7815
393.2,-0.0135,0.783
393.301,-0.0135,0.7825
393.4,-0.0135,0.7825
393.5,-0.0135,0.7825
393.6,-0.014,0.782
393.701,-0.0135,0.7835
393.8,-0.014,0.7835
393.901,-0.014,0.784
394,-0.0135,0.784
394.1,-0.0135,0.7845
394.201,-0.0135,0.7865
394.3,-0.0135,0.7865
394.4,-0.014,0.791
394.501,-0.0135,0.7915
394.601,-0.014,0.7925
394.7,-0.0135,0.793
394.801,-0.014,0.7945
394.9,-0.014,0.7945
395,-0.0135,0.793
395.1,-0.0135,0.794
395.2,-0.014,0.7955
395.301,-0.0135,0.798
395.401,-0.0135,0.799
395.5,-0.014,0.7985
395.6,-0.014,0.799
395.701,-0.0135,0.8
395.801,-0.014,0.7995
395.9,-0.014,0.8
396,-0.014,0.799
396.101,-0.014,0.7995
396.2,-0.014,0.799
396.3,-0.0135,0.798
396.4,-0.014,0.8
396.501,-0.0135,0.8
396.6,-0.014,0.7995
396.701,-0.014,0.8
396.801,-0.014,0.8
396.9,-0.014,0.8
397,-0.013,0.7995
397.1,-0.0145,0.8005
397.2,-0.014,0.801
397.301,-0.0135,0.8015
397.4,-0.014,0.8015
397.501,-0.014,0.8015
397.601,-0.014,0.8025
397.7,-0.014,0.8015
397.801,-0.014,0.8025
397.9,-0.014,0.8025
398.001,-0.014,0.8025
398.1,-0.014,0.8025
398.2,-0.014,0.8025
398.299,-0.013,0.8015
398.4,-0.014,0.801
398.501,-0.014,0.8025
398.6,-0.014,0.8035
398.701,-0.014,0.804
398.8,-0.014,0.8035
398.9,-0.0135,0.804
399.001,-0.014,0.8045
399.1,-0.0145,0.8045
399.2,-0.0135,0.8045
399.301,-0.014,0.805
399.401,-0.014,0.8055
399.5,-0.014,0.8045
399.601,-0.014,0.8045
399.7,-0.014,0.805
399.8,-0.014,0.8055
399.9,-0.014,0.8055
400,-0.014,0.8055
400.1,-0.014,0.806
400.201,-0.0135,0.8065
400.3,-0.014,0.8065
400.4,-0.0135,0.8065
400.501,-0.014,0.809
400.6,-0.014,0.8085
400.701,-0.0135,0.809
400.8,-0.014,0.809
400.901,-0.014,0.8095
401,-0.0135,0.8095
401.101,-0.0145,0.8105
401.201,-0.0145,0.8105
401.301,-0.014,0.808
401.401,-0.0135,0.81
401.5,-0.0135,0.809
401.6,-0.0135,0.8095
401.701,-0.0145,0.8105
401.8,-0.0135,0.81
401.901,-0.0145,0.8105
402.001,-0.0135,0.811
402.101,-0.0135,0.8105
402.2,-0.0135,0.811
402.301,-0.0145,0.812
402.401,-0.0135,0.8115
402.501,-0.014,0.813
402.6,-0.0135,0.812
402.7,-0.0135,0.8125
402.799,-0.012,0.8115
402.9,-0.0135,0.812
403.001,-0.0145,0.813
403.1,-0.0135,0.812
403.201,-0.0145,0.813
403.301,-0.0145,0.813
403.4,-0.0135,0.8125
403.501,-0.0145,0.8135
403.601,-0.0145,0.8135
403.7,-0.0135,0.8135
403.801,-0.0145,0.8145
403.9,-0.0135,0.814
404.001,-0.0145,0.8145
404.101,-0.0135,0.814
404.2,-0.012,0.813
404.301,-0.0135,0.8145
404.4,-0.0135,0.815
404.501,-0.0145,0.8165
404.6,-0.0135,0.816
404.7,-0.012,0.8145
404.8,-0.0135,0.8155
404.901,-0.014,0.817
405.001,-0.0145,0.8175
405.101,-0.0135,0.817
405.202,-0.0145,0.8175
405.3,-0.0135,0.8175
405.401,-0.013,0.8175
405.5,-0.0135,0.818
405.6,-0.0135,0.818
405.701,-0.0135,0.8185
405.8,-0.0135,0.819
405.901,-0.0135,0.819
406,-0.012,0.8185
406.1,-0.0135,0.82
406.201,-0.0135,0.8205
406.3,-0.0135,0.8205
406.401,-0.0145,0.8215
406.5,-0.0135,0.8215
406.601,-0.0135,0.821
406.701,-0.0135,0.8215
406.801,-0.0135,0.8215
406.9,-0.012,0.821
407,-0.013,0.8225
407.101,-0.0145,0.8235
407.201,-0.0135,0.823
407.3,-0.0135,0.8255
407.401,-0.0145,0.827
407.501,-0.0135,0.826
407.6,-0.0135,0.8265
407.701,-0.013,0.8265
407.8,-0.0135,0.8265
407.901,-0.0135,0.827
408,-0.013,0.827
408.1,-0.013,0.827
408.2,-0.0135,0.8275
408.301,-0.0145,0.8285
408.401,-0.0145,0.8285
408.501,-0.0145,0.8285
408.6,-0.0135,0.8285
408.701,-0.0145,0.8295
408.8,-0.0135,0.8295
408.9,-0.0135,0.83
409,-0.013,0.8305
409.1,-0.012,0.83
409.201,-0.0135,0.829
409.3,-0.013,0.8295
409.4,-0.0135,0.8295
409.5,-0.0135,0.8295
409.601,-0.0135,0.8295
409.7,-0.013,0.83
409.8,-0.013,0.83
409.9,-0.013,0.8305
410.001,-0.0135,0.831
410.1,-0.013,0.8315
410.201,-0.0145,0.832
410.3,-0.0135,0.832
410.4,-0.013,0.832
410.5,-0.0135,0.8325
410.6,-0.013,0.8325
410.7,-0.013,0.833
410.801,-0.0145,0.833
410.901,-0.014,0.8335
411.001,-0.014,0.8335
411.101,-0.0145,0.8345
411.2,-0.0135,0.835
411.3,-0.013,0.835
411.4,-0.012,0.8345
411.5,-0.013,0.836
411.6,-0.013,0.836
411.7,-0.013,0.8365
411.8,-0.013,0.837
411.9,-0.013,0.837
412.001,-0.014,0.838
412.1,-0.013,0.8375
412.201,-0.0145,0.838
412.3,-0.013,0.838
412.401,-0.014,0.839
412.5,-0.0145,0.8395
412.601,-0.013,0.839
412.7,-0.013,0.8385
412.8,-0.013,0.839
412.901,-0.013,0.8395
413,-0.013,0.8395
413.101,-0.014,0.84
413.201,-0.013,0.84
413.3,-0.012,0.8395
413.4,-0.012,0.8395
413.5,-0.013,0.8405
413.601,-0.013,0.8415
413.7,-0.012,0.8405
413.8,-0.013,0.842
413.9,-0.013,0.842
413.999,-0.012,0.8415
414.101,-0.0145,0.843
414.2,-0.013,0.8435
414.3,-0.013,0.844
414.4,-0.012,0.8435
414.5,-0.013,0.8445
414.601,-0.014,0.8455
414.701,-0.013,0.8455
414.8,-0.012,0.8455
414.9,-0.013,0.847
415,-0.013,0.846
415.1,-0.013,0.8465
415.201,-0.0145,0.8475
415.3,-0.013,0.8465
415.401,-0.0145,0.847
415.5,-0.013,0.847
415.6,-0.013,0.847
415.7,-0.013,0.847
415.801,-0.014,0.848
415.9,-0.013,0.8475
416.001,-0.013,0.848
416.1,-0.013,0.848
416.2,-0.013,0.8485
416.3,-0.013,0.8485
416.401,-0.0145,0.8495
416.5,-0.013,0.849
416.6,-0.013,0.849
416.701,-0.0145,0.85
416.801,-0.013,0.8495
416.9,-0.012,0.849
417.001,-0.013,0.85
417.1,-0.013,0.85
417.2,-0.013,0.85
417.3,-0.013,0.8505
417.401,-0.013,0.8505
417.5,-0.013,0.851
417.601,-0.0145,0.8515
417.7,-0.013,0.8515
417.8,-0.013,0.851
417.901,-0.014,0.852
418.001,-0.0145,0.8525
418.1,-0.013,0.8525
418.201,-0.013,0.8525
418.3,-0.013,0.853
418.4,-0.013,0.853
418.501,-0.0145,0.854
418.601,-0.013,0.854
418.701,-0.014,0.8545
418.8,-0.013,0.854
418.9,-0.013,0.8545
419.001,-0.013,0.855
419.101,-0.013,0.855
419.2,-0.012,0.855
419.301,-0.013,0.8555
419.4,-0.012,0.855
419.501,-0.013,0.856
419.6,-0.013,0.8565
419.7,-0.013,0.8565
419.801,-0.0145,0.8575
419.9,-0.013,0.857
420.001,-0.0145,0.858
420.1,-0.013,0.858
420.2,-0.013,0.858
420.3,-0.013,0.8585
420.4,-0.013,0.859
420.501,-0.014,0.8595
420.6,-0.013,0.8595
420.701,-0.0145,0.8605
420.801,-0.013,0.86
420.9,-0.013,0.86
421,-0.0125,0.8605
421.1,-0.013,0.8605
421.201,-0.014,0.861
421.301,-0.013,0.861
421.4,-0.013,0.8615
421.501,-0.013,0.8645
421.6,-0.012,0.865
421.7,-0.013,0.8645
421.8,-0.013,0.8645
421.901,-0.0145,0.8655
422.001,-0.014,0.8655
422.1,-0.013,0.8655
422.201,-0.0145,0.8665
422.301,-0.013,0.8665
422.4,-0.013,0.867
422.5,-0.013,0.867
422.601,-0.013,0.867
422.701,-0.013,0.8675
422.8,-0.013,0.868
422.901,-0.013,0.868
423,-0.0125,0.868
423.101,-0.013,0.8685
423.201,-0.013,0.8685
423.301,-0.013,0.8685
423.4,-0.013,0.869
423.501,-0.013,0.869
423.6,-0.013,0.869
423.701,-0.0145,0.8695
423.801,-0.013,0.87
423.9,-0.013,0.8695
424,-0.013,0.87
424.101,-0.0145,0.8705
424.201,-0.013,0.8705
424.301,-0.013,0.8705
424.401,-0.013,0.871
424.5,-0.0125,0.8705
424.601,-0.013,0.871
424.7,-0.0135,0.871
424.801,-0.013,0.871
424.9,-0.0135,0.8715
425.001,-0.015,0.872
425.099,-0.0125,0.8715
425.2,-0.0135,0.872
425.3,-0.0125,0.8715
425.4,-0.0125,0.8715
425.5,-0.0135,0.872
425.6,-0.0135,0.8725
425.701,-0.015,0.8725
425.8,-0.0145,0.8725
425.9,-0.0135,0.873
426.001,-0.0145,0.873
426.101,-0.0135,0.8735
426.2,-0.0135,0.8735
426.301,-0.0145,0.8735
426.401,-0.0135,0.874
426.5,-0.0135,0.874
426.6,-0.0135,0.8745
426.7,-0.0135,0.8745
426.8,-0.0135,0.875
426.9,-0.0135,0.8765
427,-0.0125,0.877
427.1,-0.014,0.8845
427.2,-0.014,0.884
427.301,-0.015,0.8845
427.4,-0.014,0.884
427.501,-0.015,0.8845
427.6,-0.014,0.8845
427.7,-0.014,0.8845
427.799,-0.0125,0.884
427.901,-0.014,0.8845
428,-0.014,0.8845
428.1,-0.014,0.8845
428.201,-0.014,0.885
428.3,-0.0145,0.885
428.4,-0.014,0.885
428.5,-0.014,0.885
428.6,-0.0145,0.885
428.7,-0.014,0.885
428.8,-0.014,0.884
428.9,-0.0145,0.884
429,-0.013,0.8835
429.1,-0.0145,0.8845
429.2,-0.0145,0.8845
429.3,-0.013,0.884
429.4,-0.0145,0.8845
429.5,-0.0145,0.8845
429.6,-0.0145,0.8845
429.701,-0.015,0.8845
429.801,-0.0155,0.885
429.9,-0.0145,0.885
430.001,-0.0155,0.885
430.101,-0.0155,0.8845
430.201,-0.0145,0.884
430.3,-0.015,0.884
430.4,-0.015,0.8845
430.5,-0.0145,0.884
430.6,-0.0135,0.884
430.7,-0.015,0.8845
430.801,-0.015,0.8845
430.9,-0.015,0.8845
431,-0.015,0.8845
431.101,-0.015,0.8845
431.201,-0.015,0.8845
431.301,-0.015,0.8845
431.4,-0.015,0.8845
431.5,-0.014,0.8845
431.6,-0.014,0.8845
431.7,-0.015,0.8845
431.8,-0.015,0.8845
431.901,-0.015,0.884
432.001,-0.0155,0.885
432.101,-0.015,0.885
432.2,-0.015,0.885
432.301,-0.015,0.8845
432.4,-0.0155,0.8855
432.5,-0.0155,0.8855
432.6,-0.0145,0.8855
432.7,-0.0155,0.886
432.801,-0.015,0.8855
432.9,-0.0155,0.886
433.001,-0.0145,0.8855
433.1,-0.0155,0.886
433.2,-0.0155,0.886
433.301,-0.015,0.886
433.4,-0.0155,0.886
433.501,-0.015,0.886
433.601,-0.015,0.886
433.7,-0.015,0.886
433.801,-0.015,0.886
433.903,-0.0145,0.886
434,-0.015,0.8865
434.1,-0.015,0.8865
434.2,-0.0155,0.8865
434.301,-0.0155,0.8865
434.4,-0.015,0.887
434.5,-0.0155,0.887
434.6,-0.015,0.887
434.7,-0.015,0.8875
434.801,-0.015,0.8875
434.901,-0.015,0.8875
435.001,-0.015,0.8875
435.1,-0.015,0.888
435.201,-0.0145,0.888
435.301,-0.015,0.888
435.4,-0.015,0.8875
435.499,-0.0155,0.888
435.601,-0.015,0.888
435.701,-0.015,0.888
435.8,-0.015,0.888
435.9,-0.015,0.8885
436,-0.015,0.8885
436.1,-0.015,0.8885
436.2,-0.015,0.8885
436.301,-0.0145,0.8885
436.401,-0.015,0.8885
436.5,-0.015,0.8885
436.601,-0.0145,0.8885
436.701,-0.015,0.8885
436.8,-0.015,0.889
436.901,-0.0145,0.889
437,-0.015,0.889
437.101,-0.015,0.889
437.2,-0.0145,0.889
437.3,-0.0145,0.889
437.4,-0.0145,0.889
437.501,-0.0145,0.889
437.6,-0.0145,0.889
437.7,-0.0145,0.889
437.8,-0.0145,0.889
437.899,-0.015,0.889
438,-0.015,0.889
438.1,-0.0145,0.8895
438.201,-0.014,0.889
438.299,-0.015,0.8895
438.4,-0.0145,0.89
438.5,-0.0145,0.89
438.601,-0.0145,0.8895
438.701,-0.0145,0.89
438.8,-0.0145,0.89
438.901,-0.0145,0.89
439,-0.0145,0.89
439.101,-0.0145,0.89
439.2,-0.0145,0.89
439.301,-0.0145,0.889
439.401,-0.0145,0.8895
439.501,-0.0145,0.8895
439.6,-0.0145,0.89
439.7,-0.0145,0.89
439.8,-0.0145,0.89
439.899,-0.0155,0.89
440,-0.0145,0.89
440.099,-0.015,0.8905
440.201,-0.0145,0.8895
440.3,-0.0145,0.8905
440.4,-0.0145,0.8905
440.5,-0.0145,0.8905
440.6,-0.0145,0.891
440.701,-0.0145,0.8905
440.801,-0.0145,0.8905
440.9,-0.0145,0.891
441.001,-0.0145,0.8905
441.1,-0.0145,0.891
441.2,-0.0145,0.891
441.3,-0.015,0.8915
441.4,-0.015,0.8915
441.501,-0.0145,0.891
441.601,-0.0145,0.8905
441.7,-0.0145,0.891
441.8,-0.0145,0.891
441.9,-0.0145,0.891
442.001,-0.0145,0.891
442.1,-0.0145,0.8905
442.2,-0.0145,0.8905
442.301,-0.0145,0.891
442.4,-0.0145,0.891
442.5,-0.0145,0.8915
442.6,-0.0145,0.892
442.701,-0.0145,0.8915
442.8,-0.0145,0.892
442.9,-0.0145,0.8925
443,-0.015,0.8925
443.1,-0.0145,0.8925
443.201,-0.014,0.892
443.301,-0.014,0.8915
443.401,-0.0145,0.8915
443.499,-0.0145,0.893
443.6,-0.0145,0.892
443.701,-0.014,0.8915
443.801,-0.0145,0.8915
443.901,-0.0145,0.8915
444.001,-0.0145,0.8915
444.101,-0.0145,0.892
444.2,-0.0145,0.892
444.301,-0.014,0.8915
444.401,-0.0145,0.892
444.5,-0.0145,0.8925
444.6,-0.0145,0.8925
444.7,-0.015,0.8935
444.8,-0.0145,0.893
444.9,-0.0145,0.8935
445.001,-0.0145,0.894
445.1,-0.0145,0.8945
445.201,-0.014,0.8935
445.301,-0.014,0.894
445.4,-0.0145,0.8945
445.5,-0.0145,0.8945
445.6,-0.0145,0.8945
445.7,-0.0145,0.8945
445.799,-0.0145,0.895
445.9,-0.0145,0.894
446.001,-0.0145,0.8935
446.1,-0.015,0.8945
446.2,-0.0145,0.894
446.301,-0.0145,0.8935
446.401,-0.0145,0.893
446.5,-0.0145,0.8935
446.6,-0.0145,0.893
446.701,-0.0145,0.893
446.8,-0.015,0.894
446.9,-0.0145,0.894
447,-0.0145,0.895
447.101,-0.014,0.896
447.201,-0.0145,0.8965
447.3,-0.0145,0.8965
447.401,-0.014,0.8965
447.5,-0.0145,0.897
447.601,-0.0145,0.8965
447.7,-0.0145,0.8975
447.8,-0.0145,0.8975
447.899,-0.0145,0.898
448,-0.0145,0.8975
448.101,-0.0145,0.8975
448.2,-0.0145,0.899
448.3,-0.0145,0.8985
448.4,-0.0145,0.899
448.501,-0.014,0.8985
448.601,-0.0145,0.899
448.7,-0.0145,0.8985
448.8,-0.0145,0.898
448.9,-0.0145,0.8975
449.001,-0.0145,0.897
449.1,-0.0145,0.897
449.201,-0.0145,0.897
449.3,-0.0145,0.897
449.4,-0.0145,0.8965
449.501,-0.0145,0.8965
449.601,-0.0145,0.897
449.7,-0.0145,0.897
449.8,-0.0145,0.897
449.9,-0.0145,0.897
450.001,-0.014,0.896
450.101,-0.014,0.896
450.201,-0.0145,0.896
450.3,-0.0145,0.896
450.401,-0.0145,0.896
450.501,-0.0145,0.896
450.6,-0.0145,0.8955
450.7,-0.0145,0.8955
450.8,-0.0145,0.895
450.901,-0.0145,0.8955
451,-0.015,0.896
451.101,-0.0145,0.895
451.2,-0.0145,0.895
451.3,-0.0145,0.895
451.401,-0.014,0.8945
451.501,-0.014,0.894
451.601,-0.014,0.894
451.7,-0.015,0.8945
451.8,-0.014,0.894
451.901,-0.014,0.8935
452.001,-0.0145,0.894
452.1,-0.0145,0.894
452.201,-0.014,0.894
452.3,-0.0145,0.8945
452.4,-0.014,0.8945
452.499,-0.015,0.8955
452.6,-0.0145,0.895
452.7,-0.014,0.895
452.8,-0.015,0.8955
452.899,-0.0145,0.8965
453.001,-0.0145,0.8965
453.1,-0.0145,0.897
453.2,-0.014,0.897
453.3,-0.0145,0.897
453.4,-0.0145,0.897
453.501,-0.014,0.8965
453.601,-0.014,0.897
453.701,-0.0145,0.8975
453.8,-0.0145,0.898
453.9,-0.0145,0.898
454,-0.0145,0.898
454.101,-0.014,0.8975
454.2,-0.014,0.898
454.3,-0.0145,0.8985
454.4,-0.0145,0.8985
454.5,-0.014,0.898
454.6,-0.0145,0.8985
454.699,-0.0145,0.8985
454.8,-0.0145,0.8985
454.9,-0.0145,0.8985
455,-0.0145,0.898
455.1,-0.014,0.8975
455.2,-0.014,0.8975
455.3,-0.014,0.8975
455.4,-0.0145,0.898
455.5,-0.014,0.898
455.6,-0.014,0.8985
455.701,-0.014,0.899
455.8,-0.0145,0.899
455.9,-0.014,0.899
456.001,-0.014,0.8985
456.101,-0.014,0.8985
456.2,-0.014,0.899
456.3,-0.014,0.8985
456.4,-0.014,0.8985
456.5,-0.014,0.8985
456.599,-0.0145,0.8985
456.7,-0.014,0.898
456.8,-0.014,0.8975
456.9,-0.014,0.898
457.001,-0.014,0.8975
457.1,-0.014,0.8975
457.201,-0.014,0.897
457.3,-0.014,0.8975
457.401,-0.014,0.8975
457.5,-0.0145,0.898
457.601,-0.014,0.898
457.7,-0.0145,0.898
457.8,-0.0145,0.8975
457.9,-0.014,0.897
458,-0.0145,0.8975
458.1,-0.014,0.897
458.201,-0.014,0.8965
458.301,-0.014,0.897
458.4,-0.014,0.8965
458.501,-0.014,0.896
458.601,-0.014,0.8965
458.7,-0.0145,0.8965
458.8,-0.014,0.8965
458.901,-0.014,0.896
459,-0.014,0.8965
459.101,-0.014,0.8965
459.2,-0.014,0.8965
459.301,-0.014,0.896
459.4,-0.014,0.897
459.499,-0.014,0.8975
459.6,-0.014,0.8975
459.701,-0.014,0.8975
459.8,-0.014,0.898
459.899,-0.014,0.8985
460.001,-0.014,0.898
460.1,-0.014,0.898
460.2,-0.014,0.8975
460.301,-0.014,0.898
460.4,-0.014,0.898
460.5,-0.014,0.8975
460.601,-0.014,0.8975
460.7,-0.014,0.898
460.8,-0.014,0.897
460.901,-0.0135,0.8965
461.001,-0.0135,0.8965
461.101,-0.0135,0.896
461.201,-0.0135,0.896
461.3,-0.014,0.8965
461.4,-0.014,0.8965
461.499,-0.0145,0.897
461.6,-0.014,0.8965
461.701,-0.0135,0.896
461.801,-0.014,0.8965
461.9,-0.014,0.8965
462,-0.014,0.897
462.101,-0.014,0.897
462.2,-0.014,0.8965
462.3,-0.014,0.8965
462.401,-0.0135,0.896
462.501,-0.014,0.8965
462.6,-0.014,0.8965
462.7,-0.014,0.896
462.801,-0.014,0.8955
462.901,-0.014,0.8955
463,-0.014,0.896
463.1,-0.014,0.8955
463.199,-0.0145,0.896
463.3,-0.014,0.8955
463.4,-0.014,0.896
463.5,-0.014,0.8965
463.6,-0.014,0.896
463.701,-0.0135,0.8945
463.8,-0.014,0.896
463.9,-0.014,0.896
464,-0.014,0.896
464.1,-0.014,0.896
464.2,-0.014,0.896
464.301,-0.0135,0.895
464.401,-0.014,0.896
464.501,-0.014,0.895
464.601,-0.014,0.895
464.7,-0.014,0.895
464.8,-0.014,0.895
464.9,-0.014,0.8945
465,-0.014,0.8945
465.1,-0.014,0.8945
465.2,-0.014,0.8945
465.299,-0.0145,0.895
465.4,-0.014,0.895
465.5,-0.014,0.895
465.6,-0.014,0.894
465.7,-0.014,0.8945
465.8,-0.014,0.894
465.9,-0.014,0.894
466.001,-0.014,0.894
466.1,-0.014,0.894
466.201,-0.0135,0.8935
466.301,-0.0135,0.893
466.401,-0.0135,0.8935
466.5,-0.014,0.8935
466.601,-0.0135,0.893
466.701,-0.014,0.8935
466.8,-0.014,0.894
466.9,-0.0135,0.8935
467,-0.014,0.8935
467.101,-0.014,0.8935
467.2,-0.014,0.894
467.3,-0.014,0.8935
467.401,-0.014,0.894
467.5,-0.014,0.8935
467.6,-0.014,0.8935
467.7,-0.0135,0.894
467.801,-0.014,0.8945
467.9,-0.014,0.894
468,-0.014,0.8935
468.101,-0.014,0.8935
468.2,-0.014,0.894
468.302,-0.014,0.893
468.4,-0.0135,0.894
468.5,-0.0135,0.8935
468.6,-0.0135,0.892
468.701,-0.0135,0.893
468.8,-0.014,0.893
468.9,-0.0135,0.894
469,-0.014,0.894
469.1,-0.014,0.8925
469.2,-0.014,0.894
469.3,-0.014,0.894
469.401,-0.0135,0.893
469.5,-0.014,0.894
469.601,-0.0135,0.893
469.701,-0.0135,0.8925
469.801,-0.014,0.8935
469.9,-0.0135,0.892
470,-0.014,0.8905
470.1,-0.014,0.8925
470.2,-0.014,0.892
470.3,-0.014,0.893
470.4,-0.014,0.8925
470.5,-0.014,0.8925
470.6,-0.014,0.892
470.701,-0.0135,0.8905
470.8,-0.014,0.8895
470.9,-0.0135,0.8905
471.001,-0.0135,0.8905
471.1,-0.014,0.89
471.201,-0.0135,0.8915
471.301,-0.014,0.891
471.4,-0.014,0.8895
471.5,-0.0135,0.8895
471.6,-0.014,0.89
471.701,-0.0135,0.889
471.801,-0.014,0.8885
471.9,-0.014,0.8875
472,-0.014,0.889
472.102,-0.0135,0.8885
472.2,-0.014,0.8875
472.301,-0.0135,0.889
472.4,-0.014,0.8885
472.5,-0.014,0.889
472.601,-0.014,0.888
472.701,-0.014,0.888
472.801,-0.014,0.888
472.901,-0.014,0.888
473,-0.014,0.89
473.1,-0.014,0.8875
473.201,-0.014,0.89
473.3,-0.014,0.888
473.401,-0.014,0.888
473.501,-0.014,0.8895
473.6,-0.0135,0.89
473.7,-0.014,0.8895
473.801,-0.0135,0.889
473.901,-0.0135,0.889
474.001,-0.0135,0.887
474.1,-0.014,0.888
474.201,-0.014,0.8865
474.3,-0.014,0.8865
474.4,-0.014,0.886
474.5,-0.014,0.888
474.6,-0.014,0.8875
474.7,-0.014,0.886
474.8,-0.014,0.887
474.901,-0.014,0.886
475,-0.014,0.886
475.101,-0.0135,0.886
475.201,-0.0135,0.8855
475.301,-0.014,0.8845
475.4,-0.0135,0.884
475.501,-0.0135,0.884
475.601,-0.0135,0.8835
475.7,-0.014,0.883
475.801,-0.0135,0.883
475.901,-0.014,0.8825
476,-0.014,0.8825
476.1,-0.0135,0.8825
476.2,-0.014,0.8825
476.3,-0.014,0.883
476.4,-0.014,0.8825
476.5,-0.0135,0.8825
476.601,-0.014,0.8825
476.7,-0.014,0.883
476.8,-0.014,0.8825
476.9,-0.014,0.8825
477,-0.014,0.883
477.1,-0.0145,0.8825
477.201,-0.0135,0.8825
477.3,-0.014,0.8825
477.401,-0.014,0.882
477.5,-0.0135,0.882
477.601,-0.0135,0.882
477.7,-0.014,0.882
477.8,-0.014,0.882
477.9,-0.0135,0.881
478.001,-0.014,0.881
478.1,-0.014,0.881
478.201,-0.0135,0.8805
478.3,-0.0135,0.88
478.4,-0.0135,0.8795
478.501,-0.0135,0.8785
478.6,-0.0135,0.878
478.7,-0.0135,0.878
478.8,-0.014,0.878
478.9,-0.014,0.8775
479.001,-0.0135,0.8775
479.101,-0.0135,0.8775
479.2,-0.014,0.878
479.3,-0.014,0.8765
479.4,-0.014,0.8775
479.5,-0.014,0.8775
479.6,-0.014,0.8775
479.7,-0.0135,0.877
479.801,-0.0135,0.877
479.9,-0.0135,0.877
480,-0.0135,0.8765
480.1,-0.014,0.876
480.199,-0.014,0.877
480.3,-0.0135,0.876
480.4,-0.014,0.8755
480.5,-0.0135,0.875
480.6,-0.0135,0.875
480.7,-0.014,0.875
480.8,-0.014,0.875
480.901,-0.0125,0.875
481.001,-0.0145,0.875
481.1,-0.0135,0.8745
481.2,-0.0135,0.8745
481.3,-0.0135,0.874
481.401,-0.0135,0.874
481.5,-0.014,0.8745
481.601,-0.0135,0.874
481.7,-0.0135,0.874
481.8,-0.0135,0.874
481.9,-0.0135,0.8735
482,-0.0135,0.8735
482.1,-0.0135,0.8735
482.201,-0.0135,0.8735
482.3,-0.0135,0.873
482.401,-0.013,0.8725
482.501,-0.0135,0.872
482.601,-0.013,0.8715
482.701,-0.014,0.8705
482.8,-0.0135,0.87
482.901,-0.013,0.8695
483,-0.0135,0.8695
483.1,-0.0135,0.869
483.2,-0.014,0.869
483.3,-0.0135,0.869
483.4,-0.014,0.869
483.501,-0.013,0.8695
483.601,-0.013,0.8695
483.7,-0.0135,0.869
483.8,-0.0135,0.8685
483.901,-0.0135,0.868
484,-0.0135,0.8675
484.1,-0.0135,0.8675
484.2,-0.0135,0.8675
484.301,-0.0135,0.867
484.401,-0.014,0.867
484.501,-0.0135,0.8675
484.6,-0.014,0.867
484.701,-0.0135,0.867
484.8,-0.0135,0.867
484.9,-0.0135,0.8665
485,-0.0135,0.866
485.101,-0.0135,0.866
485.201,-0.013,0.866
485.301,-0.0135,0.866
485.4,-0.014,0.865
485.5,-0.014,0.865
485.6,-0.014,0.8645
485.7,-0.0135,0.864
485.8,-0.0135,0.864
485.9,-0.0135,0.8635
486.001,-0.013,0.864
486.1,-0.0135,0.864
486.201,-0.0135,0.8635
486.3,-0.014,0.8635
486.4,-0.0135,0.8635
486.5,-0.014,0.8635
486.6,-0.014,0.8635
486.701,-0.0135,0.863
486.8,-0.014,0.863
486.9,-0.0135,0.8625
487,-0.0135,0.8615
487.101,-0.0135,0.861
487.201,-0.013,0.8605
487.3,-0.0135,0.8595
487.401,-0.0135,0.8595
487.5,-0.0135,0.8585
487.601,-0.0135,0.858
487.701,-0.0135,0.8575
487.8,-0.0135,0.857
487.9,-0.0135,0.8565
488.001,-0.0135,0.856
488.101,-0.0135,0.855
488.2,-0.0135,0.8545
488.3,-0.0135,0.854
488.4,-0.0135,0.8535
488.501,-0.0135,0.853
488.6,-0.0135,0.8525
488.701,-0.0135,0.8525
488.8,-0.0135,0.852
488.901,-0.0135,0.8525
489.001,-0.0135,0.852
489.1,-0.0135,0.8515
489.201,-0.0135,0.8515
489.3,-0.0135,0.8515
489.4,-0.0135,0.8515
489.5,-0.0135,0.8515
489.6,-0.0135,0.8515
489.7,-0.0135,0.8515
489.801,-0.0135,0.851
489.901,-0.0135,0.851
490,-0.014,0.8505
490.1,-0.0135,0.85
490.201,-0.0135,0.8495
490.301,-0.0135,0.8495
490.4,-0.014,0.8495
490.5,-0.0135,0.849
490.601,-0.0135,0.8485
490.701,-0.0135,0.8485
490.8,-0.0135,0.8485
490.901,-0.0135,0.8485
491.002,-0.0135,0.8485
491.101,-0.0135,0.8485
491.2,-0.0135,0.848
491.301,-0.0135,0.8475
491.401,-0.014,0.8475
491.5,-0.014,0.847
491.6,-0.014,0.847
491.7,-0.014,0.8465
491.8,-0.014,0.8465
491.9,-0.014,0.8465
492.001,-0.014,0.846
492.1,-0.014,0.846
492.2,-0.014,0.846
492.3,-0.014,0.846
492.4,-0.014,0.846
492.5,-0.014,0.8455
492.601,-0.014,0.8455
492.7,-0.014,0.845
492.8,-0.014,0.845
492.901,-0.0135,0.8445
493,-0.014,0.8445
493.101,-0.013,0.8445
493.2,-0.014,0.8445
493.301,-0.013,0.844
493.4,-0.014,0.844
493.501,-0.014,0.844
493.6,-0.014,0.8435
493.7,-0.014,0.8435
493.8,-0.014,0.843
493.9,-0.014,0.843
494,-0.014,0.8425
494.101,-0.014,0.842
494.201,-0.014,0.842
494.3,-0.0145,0.84
494.4,-0.014,0.8415
494.5,-0.014,0.841
494.601,-0.013,0.8405
494.7,-0.014,0.8405
494.8,-0.014,0.84
494.9,-0.014,0.84
495,-0.014,0.84
495.1,-0.014,0.8395
495.2,-0.014,0.8395
495.301,-0.0145,0.8395
495.4,-0.014,0.8395
495.501,-0.013,0.839
495.6,-0.014,0.839
495.7,-0.014,0.8385
495.8,-0.014,0.8385
495.9,-0.014,0.838
496,-0.014,0.838
496.1,-0.014,0.8375
496.2,-0.014,0.837
496.3,-0.014,0.837
496.399,-0.0145,0.836
496.5,-0.0145,0.8365
