Zeit t / s,Spannung U_A1 / V,Spannung U_B1 / V
0,0.193,-0.0105
0.101,0.191,-0.01035
0.201,0.191,-0.0105
0.3,0.1925,-0.01065
0.401,0.191,-0.01035
0.5,0.1925,-0.01065
0.601,0.1925,-0.0105
0.701,0.191,-0.01035
0.8,0.1925,-0.01065
0.9,0.1925,-0.01065
1,0.1925,-0.01065
1.099,0.1935,-0.0105
1.2,0.1925,-0.01065
1.301,0.191,-0.01035
1.401,0.191,-0.01035
1.5,0.193,-0.01065
1.599,0.193,-0.01065
1.7,0.1925,-0.01065
1.8,0.1925,-0.01065
1.9,0.1925,-0.01065
2,0.1925,-0.01065
2.1,0.1925,-0.01065
2.2,0.1925,-0.0105
2.3,0.1925,-0.0105
2.401,0.191,-0.01035
2.501,0.191,-0.01035
2.6,0.1925,-0.01065
2.7,0.1925,-0.01065
2.8,0.1925,-0.0105
2.9,0.1925,-0.0105
3,0.1925,-0.0105
3.1,0.1925,-0.01065
3.2,0.1925,-0.01065
3.3,0.1925,-0.01065
3.4,0.1925,-0.01065
3.5,0.193,-0.01065
3.6,0.192,-0.01065
3.701,0.191,-0.01035
3.801,0.191,-0.0105
3.9,0.192,-0.0105
3.999,0.193,-0.0105
4.1,0.192,-0.0105
4.2,0.192,-0.0105
4.301,0.192,-0.0105
4.4,0.192,-0.0105
4.499,0.193,-0.0105
4.6,0.192,-0.0105
4.7,0.192,-0.0105
4.801,0.192,-0.0105
4.9,0.1915,-0.0105
5,0.192,-0.01035
5.101,0.191,-0.0102
5.201,0.1915,-0.0105
5.3,0.1915,-0.0105
5.401,0.191,-0.0105
5.5,0.1915,-0.0105
5.601,0.191,-0.0105
5.7,0.1915,-0.0105
5.8,0.1915,-0.0105
5.902,0.191,-0.0102
6,0.1915,-0.0105
6.099,0.193,-0.01065
6.2,0.193,-0.01065
6.3,0.191,-0.0105
6.4,0.191,-0.0105
6.5,0.191,-0.0105
6.6,0.191,-0.0105
6.701,0.191,-0.0105
6.8,0.1925,-0.01065
6.9,0.191,-0.01035
6.999,0.1925,-0.0108
7.1,0.191,-0.0105
7.201,0.1905,-0.0102
7.3,0.191,-0.01065
7.4,0.191,-0.0105
7.501,0.1905,-0.01035
7.6,0.191,-0.0105
7.701,0.1905,-0.01035
7.801,0.191,-0.0105
7.9,0.191,-0.0105
8,0.191,-0.0105
8.1,0.191,-0.0105
8.2,0.1905,-0.01065
8.3,0.191,-0.01065
8.401,0.1905,-0.0105
8.5,0.191,-0.01065
8.599,0.192,-0.01065
8.7,0.191,-0.01065
8.799,0.192,-0.01065
8.899,0.1915,-0.01065
9,0.191,-0.01065
9.1,0.1905,-0.01035
9.199,0.1915,-0.01065
9.3,0.191,-0.0105
9.4,0.1905,-0.0105
9.501,0.191,-0.01095
9.6,0.1905,-0.0114
9.701,0.191,-0.0129
9.8,0.1905,-0.01035
9.9,0.191,-0.00855
10,0.191,-0.01125
10.1,0.1905,-0.0108
10.2,0.1905,-0.0108
10.3,0.19,-0.0105
10.4,0.19,-0.01095
10.5,0.19,-0.0111
10.6,0.19,-0.012
10.7,0.19,-0.0111
10.8,0.19,-0.01245
10.901,0.1895,-0.0114
11,0.1895,-0.0141
11.1,0.1895,-0.01305
11.201,0.19,-0.01215
11.3,0.189,-0.01155
11.401,0.189,-0.012
11.5,0.1885,-0.01305
11.6,0.188,-0.01305
11.701,0.1885,-0.01155
11.801,0.188,-0.01155
11.901,0.1875,-0.0126
12,0.187,-0.01245
12.1,0.187,-0.01365
12.2,0.1865,-0.01215
12.3,0.187,-0.01275
12.4,0.187,-0.0129
12.5,0.186,-0.0129
12.6,0.185,-0.0129
12.7,0.1845,-0.0129
12.8,0.183,-0.0129
12.9,0.182,-0.0129
13,0.181,-0.01275
13.099,0.18,-0.0144
13.2,0.1795,-0.01125
13.299,0.1785,-0.01425
13.4,0.1775,-0.01275
13.501,0.177,-0.01125
13.601,0.176,-0.01125
13.7,0.175,-0.01275
13.8,0.1745,-0.0126
13.9,0.1735,-0.0126
14,0.173,-0.01095
14.099,0.172,-0.0141
14.2,0.171,-0.0141
14.3,0.1705,-0.01245
14.401,0.17,-0.01095
14.501,0.169,-0.01245
14.6,0.168,-0.0141
14.7,0.168,-0.01245
14.8,0.167,-0.01245
14.9,0.1665,-0.0123
15.001,0.166,-0.0123
15.1,0.1655,-0.0123
15.2,0.1645,-0.0123
15.299,0.1635,-0.0138
15.4,0.163,-0.0123
15.5,0.1625,-0.0123
15.601,0.162,-0.01065
15.7,0.161,-0.01215
15.8,0.1605,-0.0123
15.901,0.16,-0.0105
16,0.1595,-0.01215
16.101,0.159,-0.0105
16.2,0.158,-0.01215
16.3,0.1575,-0.01215
16.4,0.157,-0.01215
16.5,0.1565,-0.0105
16.6,0.156,-0.01215
16.7,0.1555,-0.01215
16.8,0.155,-0.01215
16.899,0.154,-0.0135
17,0.154,-0.012
17.1,0.1535,-0.012
17.2,0.153,-0.01185
17.3,0.1525,-0.012
17.401,0.1525,-0.0102
17.501,0.1515,-0.01005
17.6,0.151,-0.01185
17.701,0.1505,-0.01185
17.8,0.1495,-0.01305
17.901,0.15,-0.01005
18,0.149,-0.0117
18.1,0.1485,-0.0117
18.2,0.1485,-0.01185
18.301,0.148,-0.0117
18.4,0.1475,-0.00975
18.501,0.147,-0.01155
18.6,0.146,-0.0129
18.7,0.146,-0.0117
18.8,0.1455,-0.0129
18.9,0.1455,-0.01155
19,0.145,-0.01155
19.1,0.1445,-0.01155
19.201,0.1445,-0.00975
19.3,0.1435,-0.0117
19.4,0.143,-0.01155
19.501,0.143,-0.00975
19.601,0.1425,-0.00975
19.7,0.142,-0.01155
19.801,0.142,-0.0096
19.9,0.141,-0.01155
20,0.1405,-0.0114
20.1,0.1405,-0.0114
20.199,0.1395,-0.01275
20.3,0.1395,-0.01125
20.4,0.139,-0.0114
20.5,0.1385,-0.01125
20.6,0.138,-0.01125
20.7,0.138,-0.01125
20.799,0.137,-0.0126
20.9,0.137,-0.0111
21,0.137,-0.01125
21.1,0.1365,-0.0111
21.2,0.136,-0.0111
21.301,0.1355,-0.0111
21.4,0.135,-0.0111
21.5,0.135,-0.0111
21.6,0.1345,-0.0111
21.7,0.134,-0.01095
21.799,0.1335,-0.01245
21.899,0.133,-0.01245
22,0.133,-0.0108
22.1,0.133,-0.009
22.201,0.1325,-0.009
22.301,0.1325,-0.009
22.4,0.132,-0.01065
22.5,0.1315,-0.01065
22.6,0.1315,-0.01065
22.701,0.131,-0.009
22.8,0.1305,-0.0105
22.9,0.13,-0.0105
22.999,0.1295,-0.012
23.101,0.1295,-0.0087
23.201,0.1295,-0.0087
23.3,0.129,-0.01035
23.4,0.129,-0.0102
23.501,0.1285,-0.01005
23.6,0.128,-0.0102
23.7,0.128,-0.01005
23.8,0.1275,-0.01005
23.901,0.127,-0.01005
24,0.127,-0.01005
24.1,0.1265,-0.0099
24.2,0.126,-0.0099
24.3,0.126,-0.00975
24.401,0.1255,-0.00825
24.5,0.125,-0.0099
24.6,0.125,-0.00975
24.7,0.1245,-0.0096
24.8,0.124,-0.0096
24.9,0.1235,-0.0114
25,0.1235,-0.00945
25.1,0.123,-0.00675
25.201,0.123,-0.00795
25.3,0.1225,-0.0093
25.4,0.1225,-0.0093
25.5,0.122,-0.0078
25.601,0.122,-0.0078
25.7,0.1215,-0.0093
25.801,0.121,-0.00795
25.9,0.121,-0.00915
26.001,0.1205,-0.0078
26.1,0.12,-0.00915
26.2,0.12,-0.009
26.301,0.1195,-0.0078
26.4,0.1195,-0.00915
26.5,0.119,-0.009
26.6,0.1185,-0.009
26.701,0.1185,-0.00765
26.8,0.118,-0.009
26.901,0.118,-0.009
27,0.1175,-0.00885
27.1,0.117,-0.0087
27.2,0.117,-0.0087
27.3,0.1165,-0.00855
27.4,0.1165,-0.00855
27.501,0.1165,-0.0072
27.6,0.116,-0.00855
27.701,0.1155,-0.00705
27.8,0.115,-0.0081
27.9,0.115,-0.00825
28,0.1145,-0.0081
28.1,0.114,-0.0081
28.2,0.114,-0.0081
28.3,0.114,-0.0081
28.4,0.1135,-0.00795
28.5,0.1135,-0.00795
28.6,0.113,-0.00795
28.7,0.1125,-0.0078
28.801,0.113,-0.00675
28.9,0.1125,-0.00795
29,0.112,-0.0078
29.1,0.1115,-0.0057
29.201,0.112,-0.0066
29.3,0.111,-0.0078
29.401,0.111,-0.0078
29.5,0.111,-0.0078
29.6,0.1105,-0.0078
29.7,0.1105,-0.00765
29.801,0.1105,-0.0063
29.9,0.11,-0.00765
30,0.1095,-0.00765
30.1,0.1095,-0.00765
30.201,0.1095,-0.0063
30.301,0.1095,-0.00615
30.4,0.1085,-0.00735
30.499,0.1085,-0.0087
30.6,0.1085,-0.0072
30.7,0.108,-0.0072
30.8,0.108,-0.0072
30.9,0.1075,-0.0072
31,0.107,-0.00825
31.1,0.107,-0.00705
31.2,0.1065,-0.00825
31.3,0.1065,-0.0069
31.4,0.1065,-0.0069
31.5,0.1065,-0.0069
31.6,0.106,-0.0069
31.699,0.1055,-0.00795
31.8,0.1055,-0.00675
31.9,0.1055,-0.00675
32.001,0.1055,-0.00675
32.1,0.1045,-0.00795
32.2,0.1045,-0.0078
32.3,0.1045,-0.0066
32.4,0.1045,-0.0066
32.5,0.104,-0.0066
32.6,0.104,-0.00645
32.7,0.1035,-0.0066
32.8,0.1035,-0.00645
32.9,0.103,-0.00645
33,0.103,-0.00645
33.1,0.103,-0.00645
33.201,0.103,-0.00555
33.3,0.1025,-0.0063
33.4,0.102,-0.0063
33.5,0.102,-0.00645
33.6,0.1015,-0.0063
33.7,0.1015,-0.0063
33.8,0.1015,-0.00615
33.9,0.101,-0.00615
34.001,0.1015,-0.0054
34.101,0.1005,-0.00615
34.2,0.1005,-0.00615
34.3,0.1005,-0.00615
34.399,0.1,-0.00705
34.5,0.1,-0.006
34.6,0.1,-0.006
34.7,0.0995,-0.00585
34.8,0.0995,-0.00585
34.9,0.0995,-0.00585
35,0.099,-0.00585
35.1,0.099,-0.0057
35.2,0.099,-0.0057
35.3,0.0985,-0.0057
35.4,0.098,-0.00675
35.5,0.098,-0.0057
35.601,0.098,-0.0057
35.7,0.0975,-0.00555
35.8,0.0975,-0.00555
35.9,0.0975,-0.00555
36,0.097,-0.00555
36.101,0.0975,-0.0051
36.201,0.097,-0.0051
36.3,0.0965,-0.00555
36.4,0.0965,-0.0054
36.5,0.096,-0.00555
36.6,0.096,-0.0051
36.7,0.096,-0.0054
36.8,0.0955,-0.0063
36.9,0.0955,-0.0054
37,0.095,-0.0051
37.101,0.0955,-0.0051
37.2,0.095,-0.0054
37.3,0.0945,-0.0054
37.399,0.094,-0.006
37.5,0.0945,-0.00525
37.6,0.094,-0.00525
37.7,0.0935,-0.00585
37.8,0.094,-0.0051
37.9,0.0935,-0.00525
38,0.0935,-0.00525
38.1,0.0935,-0.00525
38.2,0.093,-0.00525
38.301,0.093,-0.00525
38.4,0.0925,-0.00525
38.5,0.0925,-0.0051
38.601,0.0925,-0.00525
38.7,0.0925,-0.00525
38.8,0.092,-0.0051
38.9,0.092,-0.0051
39.001,0.092,-0.00525
39.1,0.0915,-0.0051
39.201,0.0915,-0.00525
39.301,0.0915,-0.00525
39.4,0.091,-0.00525
39.5,0.0905,-0.0051
39.601,0.0905,-0.0051
39.7,0.0905,-0.0051
39.8,0.09,-0.00525
39.9,0.0895,-0.0054
40,0.0895,-0.0054
40.1,0.0895,-0.0054
40.2,0.0895,-0.0051
40.3,0.0895,-0.0051
40.401,0.0895,-0.00525
40.5,0.089,-0.0051
40.6,0.089,-0.00525
40.7,0.0885,-0.00525
40.8,0.0885,-0.00525
40.899,0.088,-0.00525
40.999,0.088,-0.00525
41.1,0.088,-0.00525
41.2,0.088,-0.00525
41.3,0.088,-0.0051
41.4,0.0875,-0.00525
41.499,0.087,-0.00525
41.6,0.0875,-0.00525
41.7,0.087,-0.0051
41.8,0.087,-0.00525
41.9,0.087,-0.00525
42.001,0.0865,-0.00525
42.1,0.0865,-0.00525
42.201,0.0865,-0.006
42.301,0.0865,-0.006
42.401,0.086,-0.0054
42.5,0.086,-0.0054
42.599,0.0855,-0.00525
42.7,0.0855,-0.0075
42.8,0.0855,-0.0054
42.9,0.0855,-0.0054
43.001,0.0855,-0.0054
43.1,0.085,-0.0054
43.201,0.085,-0.0054
43.3,0.0855,-0.00645
43.399,0.0845,-0.0051
43.5,0.0845,-0.00555
43.6,0.0845,-0.0066
43.7,0.0845,-0.00585
43.8,0.0835,-0.0051
43.901,0.0845,-0.0066
44,0.084,-0.00585
44.1,0.084,-0.00555
44.2,0.0835,-0.0057
44.299,0.0835,-0.00525
44.399,0.083,-0.00525
44.5,0.0835,-0.0063
44.601,0.0835,-0.00675
44.7,0.083,-0.00585
44.802,0.0835,-0.0081
44.901,0.083,-0.0069
45,0.0825,-0.00585
45.1,0.0825,-0.006
45.2,0.0825,-0.006
45.301,0.082,-0.006
45.4,0.082,-0.006
45.501,0.0825,-0.00735
45.6,0.082,-0.00615
45.7,0.0815,-0.00615
45.8,0.0815,-0.00615
45.901,0.082,-0.0075
46.001,0.0815,-0.00765
46.101,0.0815,-0.00765
46.2,0.081,-0.0063
46.3,0.081,-0.00645
46.401,0.082,-0.0078
46.5,0.0805,-0.00645
46.6,0.0805,-0.00645
46.7,0.0805,-0.00645
46.8,0.08,-0.0066
46.9,0.08,-0.0066
47,0.08,-0.0066
47.1,0.0795,-0.00675
47.199,0.0795,-0.0057
47.299,0.0795,-0.0057
47.4,0.0795,-0.00675
47.501,0.0795,-0.00675
47.601,0.079,-0.00675
47.7,0.079,-0.00675
47.8,0.079,-0.00705
47.9,0.079,-0.00705
48,0.0785,-0.0072
48.1,0.0785,-0.0072
48.2,0.0785,-0.00735
48.3,0.0785,-0.0075
48.4,0.0785,-0.0075
48.499,0.078,-0.0063
48.6,0.078,-0.00765
48.701,0.078,-0.00885
48.8,0.078,-0.0078
48.9,0.077,-0.0078
49.001,0.0775,-0.00885
49.101,0.078,-0.0078
49.2,0.0775,-0.00765
49.3,0.077,-0.0078
49.4,0.0775,-0.0078
49.5,0.077,-0.0078
49.6,0.076,-0.0078
49.7,0.0775,-0.00795
49.8,0.0775,-0.00795
49.901,0.0765,-0.0093
50,0.077,-0.00795
50.1,0.077,-0.0081
50.2,0.0755,-0.00825
50.3,0.076,-0.00825
50.401,0.076,-0.0096
50.5,0.076,-0.0084
50.6,0.0755,-0.0084
50.699,0.075,-0.00705
50.8,0.0755,-0.00855
50.9,0.075,-0.00855
51,0.075,-0.01005
51.101,0.0745,-0.0102
51.2,0.075,-0.0087
51.3,0.075,-0.0087
51.399,0.0745,-0.00765
51.5,0.0745,-0.00885
51.6,0.074,-0.0087
51.7,0.074,-0.00885
51.8,0.073,-0.00795
51.9,0.074,-0.00885
52,0.0735,-0.009
52.1,0.0745,-0.0078
52.2,0.0735,-0.009
52.301,0.0735,-0.00915
52.4,0.0735,-0.00915
52.5,0.073,-0.0093
52.6,0.073,-0.00945
52.701,0.073,-0.01125
52.8,0.073,-0.00945
52.9,0.0725,-0.00945
53,0.0725,-0.0081
53.1,0.0725,-0.0096
53.2,0.0725,-0.0096
53.299,0.072,-0.0084
53.4,0.072,-0.00975
53.499,0.072,-0.00855
53.6,0.0715,-0.01005
53.699,0.0715,-0.00855
53.8,0.0715,-0.01005
53.9,0.071,-0.0102
54,0.071,-0.01035
54.1,0.071,-0.01035
54.2,0.071,-0.0105
54.301,0.071,-0.01215
54.4,0.0705,-0.01065
54.5,0.0705,-0.01065
54.599,0.0705,-0.009
54.699,0.0705,-0.00915
54.8,0.07,-0.0108
54.9,0.07,-0.0108
55,0.07,-0.01095
55.101,0.07,-0.0126
55.2,0.07,-0.0111
55.3,0.07,-0.01125
55.4,0.0695,-0.0114
55.5,0.0695,-0.01125
55.6,0.0695,-0.01125
55.7,0.069,-0.0114
55.801,0.069,-0.0114
55.9,0.069,-0.0114
56,0.069,-0.01155
56.1,0.0685,-0.01155
56.2,0.0685,-0.00975
56.3,0.0685,-0.01155
56.4,0.0685,-0.0117
56.5,0.0685,-0.0117
56.6,0.0685,-0.0117
56.7,0.068,-0.0117
56.801,0.068,-0.0132
56.901,0.068,-0.01335
57,0.068,-0.01185
57.101,0.068,-0.01335
57.2,0.0675,-0.012
57.301,0.0675,-0.01215
57.4,0.0675,-0.0123
57.5,0.0675,-0.0123
57.6,0.067,-0.0108
57.7,0.067,-0.0126
57.8,0.067,-0.01245
57.9,0.067,-0.0126
58.001,0.0665,-0.0138
58.1,0.0665,-0.01275
58.2,0.0665,-0.01275
58.3,0.0665,-0.01125
58.4,0.0665,-0.0129
58.5,0.066,-0.0129
58.6,0.066,-0.0129
58.699,0.066,-0.01155
58.799,0.0655,-0.01155
58.9,0.066,-0.01305
59.001,0.066,-0.01305
59.1,0.0655,-0.01305
59.2,0.0655,-0.0132
59.3,0.0655,-0.0132
59.4,0.0655,-0.01335
59.501,0.065,-0.0144
59.6,0.065,-0.0135
59.7,0.065,-0.0135
59.801,0.0645,-0.01455
59.901,0.0645,-0.01455
60.001,0.0645,-0.01455
60.1,0.0645,-0.0138
60.199,0.0645,-0.0126
60.299,0.064,-0.0138
60.4,0.064,-0.01395
60.5,0.064,-0.01395
60.599,0.064,-0.0129
60.7,0.0635,-0.0141
60.8,0.0635,-0.0141
60.899,0.0635,-0.01305
61,0.0635,-0.015
61.1,0.0635,-0.01425
61.199,0.0635,-0.01305
61.3,0.063,-0.01425
61.4,0.063,-0.0144
61.5,0.063,-0.0144
61.601,0.063,-0.0144
61.7,0.0625,-0.01455
61.8,0.0625,-0.01455
61.901,0.0625,-0.01455
62,0.062,-0.0147
62.1,0.062,-0.0147
62.2,0.062,-0.0138
62.3,0.0615,-0.01485
62.4,0.062,-0.01485
62.499,0.062,-0.01395
62.6,0.0615,-0.01485
62.7,0.0615,-0.015
62.801,0.061,-0.01545
62.901,0.061,-0.01545
63,0.061,-0.015
63.099,0.061,-0.01425
63.2,0.061,-0.01515
63.3,0.061,-0.01515
63.4,0.061,-0.01515
63.5,0.0605,-0.01515
63.599,0.0605,-0.01455
63.7,0.0605,-0.01455
63.8,0.06,-0.01515
63.901,0.06,-0.01545
64,0.06,-0.01515
64.1,0.06,-0.01515
64.201,0.0595,-0.01545
64.301,0.0595,-0.01545
64.401,0.059,-0.01545
64.501,0.059,-0.01545
64.6,0.0595,-0.0153
64.7,0.059,-0.0153
64.8,0.059,-0.0153
64.9,0.059,-0.01545
65,0.059,-0.01545
65.1,0.0585,-0.0156
65.201,0.0585,-0.01545
65.3,0.0585,-0.0156
65.4,0.0585,-0.01545
65.5,0.0585,-0.01545
65.6,0.058,-0.01545
65.7,0.058,-0.0156
65.8,0.058,-0.01545
65.9,0.058,-0.01545
66,0.0565,-0.0153
66.101,0.0575,-0.01545
66.2,0.0575,-0.0156
66.3,0.0575,-0.01545
66.401,0.056,-0.015
66.5,0.057,-0.01545
66.601,0.0555,-0.01485
66.701,0.0555,-0.01485
66.8,0.0565,-0.01545
66.9,0.0565,-0.01545
66.999,0.057,-0.01545
67.1,0.0565,-0.0156
67.2,0.056,-0.01545
67.3,0.056,-0.01545
67.399,0.0565,-0.01545
67.5,0.0555,-0.01545
67.6,0.0555,-0.01545
67.699,0.056,-0.0156
67.8,0.0535,-0.0144
67.901,0.0535,-0.0144
68.001,0.055,-0.0153
68.1,0.0545,-0.01515
68.2,0.0545,-0.01515
68.301,0.053,-0.0144
68.4,0.054,-0.01515
68.5,0.054,-0.01515
68.6,0.054,-0.015
68.7,0.0535,-0.015
68.8,0.0535,-0.015
68.901,0.0525,-0.01395
69.001,0.0525,-0.01395
69.1,0.0545,-0.01545
69.201,0.053,-0.01485
69.3,0.0525,-0.0147
69.4,0.0525,-0.01485
69.499,0.054,-0.01545
69.6,0.0535,-0.01545
69.702,0.052,-0.01215
69.799,0.0535,-0.01545
69.9,0.052,-0.01455
70,0.0515,-0.0144
70.101,0.0515,-0.0132
70.2,0.0515,-0.0144
70.3,0.0515,-0.0144
70.401,0.051,-0.01305
70.501,0.051,-0.0132
70.6,0.051,-0.0144
70.7,0.0505,-0.01425
70.801,0.051,-0.0129
70.9,0.0505,-0.01425
71,0.0505,-0.01425
71.1,0.0505,-0.01425
71.201,0.0505,-0.01275
71.3,0.0505,-0.0141
71.4,0.05,-0.01395
71.5,0.05,-0.0138
71.6,0.05,-0.0138
71.7,0.05,-0.01365
71.799,0.0505,-0.01485
71.9,0.0495,-0.0135
72,0.0495,-0.01335
72.1,0.0495,-0.01335
72.199,0.0495,-0.01455
72.3,0.0495,-0.0132
72.4,0.049,-0.0132
72.499,0.0495,-0.0144
72.6,0.049,-0.0132
72.7,0.049,-0.0132
72.8,0.049,-0.01305
72.901,0.049,-0.0117
73,0.049,-0.01305
73.1,0.049,-0.0129
73.2,0.0485,-0.0114
73.3,0.0485,-0.01275
73.401,0.0485,-0.0111
73.5,0.0485,-0.01245
73.6,0.0485,-0.01245
73.7,0.0485,-0.0123
73.8,0.0485,-0.0123
73.9,0.048,-0.01215
74,0.048,-0.01215
74.1,0.048,-0.012
74.201,0.0485,-0.01035
74.301,0.0485,-0.01035
74.4,0.048,-0.01185
74.5,0.048,-0.0117
74.6,0.048,-0.01185
74.7,0.0475,-0.01305
74.8,0.0475,-0.0117
74.899,0.047,-0.0129
75,0.047,-0.0129
75.1,0.047,-0.0114
75.2,0.0475,-0.01125
75.3,0.047,-0.01125
75.401,0.0475,-0.0093
75.5,0.047,-0.01095
75.599,0.047,-0.01245
75.7,0.047,-0.0108
75.8,0.047,-0.0108
75.901,0.047,-0.009
76,0.047,-0.01035
76.1,0.0465,-0.012
76.2,0.047,-0.01035
76.3,0.047,-0.0102
76.4,0.0465,-0.01005
76.501,0.0465,-0.0084
76.6,0.0465,-0.0099
76.699,0.0465,-0.00975
76.8,0.0465,-0.0096
76.901,0.0465,-0.0081
77,0.046,-0.00945
77.1,0.046,-0.00945
77.2,0.046,-0.0093
77.3,0.046,-0.0093
77.4,0.046,-0.00915
77.5,0.046,-0.00915
77.601,0.046,-0.00915
77.7,0.0455,-0.01065
77.8,0.046,-0.009
77.9,0.0455,-0.00885
78,0.0455,-0.0087
78.1,0.0455,-0.00855
78.2,0.0455,-0.0084
78.3,0.0455,-0.00825
78.4,0.0455,-0.00825
78.5,0.045,-0.00825
78.6,0.045,-0.00825
78.7,0.045,-0.0081
78.8,0.045,-0.00795
78.9,0.045,-0.00795
78.999,0.0445,-0.0093
79.1,0.045,-0.0078
79.2,0.0445,-0.00765
79.3,0.0445,-0.00765
79.4,0.0445,-0.00765
79.5,0.0445,-0.0075
79.6,0.0445,-0.0075
79.7,0.0445,-0.00735
79.8,0.0445,-0.00735
79.901,0.0445,-0.00735
79.999,0.044,-0.00855
80.099,0.044,-0.0084
80.2,0.044,-0.00705
80.3,0.044,-0.00705
80.4,0.044,-0.0069
80.5,0.044,-0.0069
80.6,0.044,-0.00675
80.701,0.0445,-0.0057
80.8,0.044,-0.00675
80.9,0.044,-0.00675
81,0.044,-0.0066
81.099,0.0435,-0.0078
81.2,0.044,-0.0066
81.299,0.043,-0.00765
81.4,0.0435,-0.00645
81.5,0.043,-0.0075
81.6,0.043,-0.0063
81.7,0.0435,-0.00615
81.8,0.0435,-0.00615
81.899,0.043,-0.0072
82,0.043,-0.006
82.1,0.043,-0.006
82.201,0.0435,-0.00525
82.299,0.0425,-0.0069
82.4,0.043,-0.0057
82.5,0.043,-0.0057
82.599,0.0425,-0.00675
82.7,0.043,-0.0057
82.801,0.043,-0.0057
82.9,0.0425,-0.00555
83,0.0425,-0.00555
83.101,0.0425,-0.0051
83.2,0.0425,-0.00555
83.3,0.0425,-0.00555
83.4,0.0425,-0.0054
83.5,0.0425,-0.0054
83.6,0.0435,-0.0078
83.701,0.0425,-0.0051
83.801,0.0425,-0.00525
83.9,0.042,-0.0054
84,0.042,-0.0054
84.099,0.0415,-0.006
84.201,0.042,-0.00525
84.301,0.042,-0.00525
84.4,0.042,-0.0054
84.5,0.0415,-0.0054
84.6,0.0415,-0.0054
84.7,0.0415,-0.00525
84.801,0.0415,-0.00525
84.9,0.0415,-0.00525
85,0.0415,-0.00525
85.1,0.0415,-0.00525
85.201,0.0415,-0.00555
85.301,0.0415,-0.0054
85.4,0.041,-0.00525
85.5,0.041,-0.00525
85.601,0.0415,-0.0054
85.7,0.041,-0.00525
85.799,0.0405,-0.00555
85.9,0.041,-0.00525
86,0.041,-0.00525
86.1,0.0405,-0.00525
86.2,0.0405,-0.00525
86.3,0.0405,-0.00525
86.401,0.041,-0.006
86.5,0.0405,-0.0054
86.6,0.0405,-0.0054
86.699,0.04,-0.0054
86.8,0.0405,-0.0054
86.901,0.0405,-0.0054
87,0.0405,-0.0054
87.1,0.0405,-0.0054
87.201,0.0405,-0.00615
87.3,0.0405,-0.0054
87.401,0.0405,-0.0063
87.5,0.04,-0.0054
87.6,0.04,-0.0054
87.7,0.04,-0.00555
87.8,0.04,-0.00555
87.9,0.04,-0.00555
88,0.0395,-0.00555
88.099,0.0395,-0.00525
88.201,0.04,-0.00645
88.299,0.039,-0.00525
88.4,0.0395,-0.00615
88.499,0.039,-0.0054
88.6,0.0395,-0.00645
88.701,0.0395,-0.00675
88.8,0.0395,-0.00585
88.9,0.0395,-0.00645
89,0.039,-0.0054
89.1,0.039,-0.006
89.2,0.039,-0.0063
89.3,0.039,-0.0063
89.4,0.039,-0.0063
89.5,0.039,-0.0063
89.6,0.039,-0.0063
89.701,0.0395,-0.00735
89.801,0.039,-0.00645
89.9,0.039,-0.00645
90,0.039,-0.00645
90.1,0.039,-0.0066
90.2,0.0385,-0.00675
90.301,0.0385,-0.0069
90.4,0.0385,-0.0069
90.5,0.0385,-0.0069
90.601,0.0395,-0.0081
90.7,0.039,-0.0093
90.8,0.0385,-0.0069
90.9,0.0385,-0.0069
91,0.0385,-0.0069
91.101,0.039,-0.0084
91.2,0.0385,-0.0072
91.3,0.038,-0.00705
91.4,0.038,-0.0072
91.5,0.038,-0.0075
91.6,0.0385,-0.00765
91.7,0.038,-0.0078
91.8,0.038,-0.00795
91.9,0.037,-0.00795
92,0.037,-0.00795
92.1,0.0385,-0.00795
92.2,0.037,-0.0081
92.3,0.0375,-0.0081
92.4,0.0385,-0.0081
92.501,0.038,-0.0093
92.6,0.038,-0.0081
92.699,0.037,-0.0069
92.8,0.0375,-0.00825
92.901,0.0375,-0.0096
93,0.0375,-0.00975
93.099,0.037,-0.00735
93.2,0.0375,-0.0087
93.3,0.0375,-0.0087
93.4,0.037,-0.00885
93.501,0.037,-0.0102
93.6,0.037,-0.009
93.7,0.037,-0.009
93.8,0.037,-0.009
93.9,0.037,-0.00915
94,0.037,-0.00915
94.1,0.037,-0.00915
94.2,0.037,-0.00915
94.3,0.0365,-0.00945
94.4,0.0365,-0.00945
94.5,0.0365,-0.00945
94.6,0.0365,-0.0096
94.7,0.0365,-0.00975
94.8,0.0365,-0.00975
94.9,0.0365,-0.0099
95,0.036,-0.01005
95.1,0.036,-0.01005
95.2,0.036,-0.0102
95.301,0.036,-0.0102
95.4,0.036,-0.01035
95.5,0.0355,-0.0105
95.6,0.0355,-0.01065
95.7,0.0355,-0.01065
95.801,0.036,-0.0126
95.899,0.0355,-0.0093
96,0.0355,-0.0111
96.1,0.0355,-0.01275
96.2,0.0355,-0.01275
96.3,0.0355,-0.0114
96.399,0.0355,-0.0099
96.502,0.0355,-0.0138
96.6,0.035,-0.01155
96.7,0.035,-0.0117
96.8,0.035,-0.012
96.9,0.035,-0.012
97,0.035,-0.01215
97.1,0.035,-0.0123
97.2,0.035,-0.01245
97.3,0.035,-0.0126
97.4,0.035,-0.0126
97.5,0.035,-0.0126
97.6,0.035,-0.01275
97.701,0.035,-0.01275
97.8,0.0345,-0.0129
97.9,0.0345,-0.0129
98,0.0345,-0.01305
98.1,0.0345,-0.01305
98.2,0.0345,-0.0132
98.302,0.034,-0.0147
98.399,0.0345,-0.01215
98.5,0.0345,-0.01335
98.6,0.034,-0.0135
98.699,0.034,-0.0126
98.8,0.034,-0.01365
98.9,0.034,-0.01365
99,0.034,-0.01365
99.1,0.0335,-0.01365
99.2,0.034,-0.01395
99.3,0.0335,-0.01395
99.399,0.033,-0.0147
99.501,0.033,-0.0147
99.6,0.0335,-0.0141
99.701,0.033,-0.01485
99.801,0.033,-0.01425
99.9,0.033,-0.0144
100,0.033,-0.0144
100.1,0.033,-0.0144
100.201,0.033,-0.015
100.3,0.033,-0.01455
100.401,0.0325,-0.0147
100.5,0.0325,-0.0147
100.599,0.033,-0.01395
100.7,0.0325,-0.0147
100.799,0.0325,-0.0141
100.9,0.0325,-0.01485
101.001,0.032,-0.015
101.1,0.032,-0.01485
101.2,0.032,-0.01485
101.3,0.032,-0.015
101.4,0.032,-0.015
101.501,0.0315,-0.01365
101.6,0.032,-0.015
101.7,0.032,-0.015
101.8,0.032,-0.015
101.899,0.032,-0.0147
102,0.0315,-0.01515
102.1,0.0315,-0.015
102.2,0.0315,-0.01515
102.301,0.03,-0.0147
102.4,0.0315,-0.015
102.5,0.031,-0.015
102.6,0.031,-0.015
102.701,0.0295,-0.0144
102.8,0.031,-0.01485
102.9,0.0305,-0.015
103,0.0305,-0.01485
103.1,0.0305,-0.01485
103.2,0.03,-0.01485
103.301,0.03,-0.0147
103.4,0.0295,-0.01455
103.501,0.0285,-0.0138
103.6,0.029,-0.01455
103.7,0.029,-0.01425
103.8,0.0285,-0.01425
103.9,0.0285,-0.01425
104,0.0285,-0.0141
104.1,0.03,-0.01485
104.2,0.028,-0.01395
104.3,0.028,-0.01395
104.401,0.028,-0.0126
104.501,0.028,-0.0126
104.6,0.028,-0.0138
104.701,0.0275,-0.01245
104.8,0.0275,-0.0135
104.901,0.0275,-0.01215
105,0.0275,-0.0132
105.101,0.0275,-0.012
105.201,0.0275,-0.0105
105.3,0.027,-0.0126
105.4,0.027,-0.0126
105.5,0.027,-0.0126
105.6,0.0275,-0.0126
105.7,0.027,-0.0126
105.8,0.0275,-0.01125
105.899,0.027,-0.01365
105.999,0.027,-0.01335
106.1,0.027,-0.01215
106.2,0.0275,-0.0108
106.3,0.027,-0.012
106.4,0.027,-0.01185
106.5,0.027,-0.0117
106.6,0.0265,-0.0126
106.7,0.027,-0.0114
106.8,0.027,-0.0114
106.9,0.027,-0.01125
107,0.027,-0.0111
107.099,0.0265,-0.0123
107.2,0.0265,-0.01095
107.3,0.0265,-0.0108
107.4,0.027,-0.01065
107.5,0.027,-0.0105
107.601,0.027,-0.01035
107.7,0.027,-0.0102
107.801,0.027,-0.0102
107.901,0.027,-0.01005
108,0.0265,-0.0099
108.099,0.026,-0.01125
108.2,0.0265,-0.0096
108.3,0.0265,-0.00945
108.399,0.026,-0.01095
108.5,0.0265,-0.00915
108.6,0.0265,-0.00915
108.701,0.0265,-0.0081
108.8,0.0265,-0.00915
108.901,0.026,-0.00915
108.999,0.0265,-0.01035
109.099,0.026,-0.0102
109.2,0.026,-0.0087
109.3,0.026,-0.00855
109.4,0.026,-0.0084
109.5,0.026,-0.00825
109.6,0.026,-0.00825
109.699,0.026,-0.00945
109.8,0.026,-0.00645
109.9,0.026,-0.0081
110,0.026,-0.0081
110.1,0.026,-0.00795
110.2,0.026,-0.0078
110.301,0.026,-0.0069
110.4,0.026,-0.00765
110.5,0.026,-0.00765
110.6,0.0255,-0.0075
110.701,0.026,-0.00675
110.8,0.0255,-0.00735
110.9,0.026,-0.00735
111,0.026,-0.00735
111.1,0.0255,-0.0075
111.2,0.026,-0.00735
111.3,0.0255,-0.00735
111.399,0.025,-0.0081
111.5,0.0255,-0.0066
111.6,0.0255,-0.0072
111.7,0.0255,-0.00705
111.8,0.0255,-0.00705
111.9,0.0255,-0.00705
112.001,0.0255,-0.0066
112.101,0.0255,-0.0069
112.2,0.0255,-0.0069
112.3,0.0255,-0.00675
112.401,0.0255,-0.00675
112.501,0.0255,-0.00675
112.6,0.025,-0.0069
112.7,0.025,-0.0069
112.8,0.0255,-0.0069
112.9,0.025,-0.0069
113,0.025,-0.0069
113.1,0.025,-0.0069
113.2,0.025,-0.0069
113.3,0.025,-0.0069
113.401,0.025,-0.00705
113.5,0.025,-0.0069
113.599,0.025,-0.00705
113.7,0.025,-0.0069
113.801,0.025,-0.00705
113.9,0.025,-0.00705
114,0.0245,-0.0072
114.1,0.025,-0.0072
114.2,0.025,-0.0072
114.3,0.0245,-0.0072
114.4,0.0245,-0.0072
114.501,0.0245,-0.0072
114.6,0.0245,-0.00735
114.7,0.0245,-0.0075
114.8,0.0245,-0.0075
114.9,0.0245,-0.0075
115,0.0245,-0.00765
115.1,0.0245,-0.00765
115.2,0.0245,-0.00765
115.299,0.0245,-0.0075
115.4,0.0245,-0.00795
115.5,0.0245,-0.00795
115.6,0.0245,-0.0081
115.7,0.0245,-0.0081
115.801,0.0245,-0.009
115.901,0.025,-0.00915
116,0.024,-0.00825
116.101,0.0245,-0.00915
116.2,0.0245,-0.0084
116.302,0.025,-0.0105
116.4,0.024,-0.00915
116.5,0.024,-0.00885
116.6,0.024,-0.009
116.7,0.024,-0.0096
116.8,0.024,-0.00975
116.899,0.0235,-0.0087
117,0.024,-0.0093
117.101,0.0245,-0.01155
117.2,0.024,-0.0093
117.301,0.024,-0.0096
117.401,0.024,-0.00975
117.5,0.024,-0.00975
117.6,0.024,-0.00975
117.7,0.024,-0.00975
117.8,0.024,-0.0099
117.901,0.0245,-0.0108
118.001,0.024,-0.01005
118.1,0.0235,-0.0102
118.2,0.0235,-0.01035
118.3,0.0235,-0.01035
118.4,0.0235,-0.01035
118.5,0.0235,-0.0105
118.601,0.0235,-0.0105
118.7,0.0235,-0.01035
118.8,0.0235,-0.01065
118.901,0.023,-0.0114
119,0.0235,-0.0108
119.101,0.024,-0.01155
119.201,0.024,-0.01155
119.3,0.0235,-0.0111
119.4,0.0235,-0.01125
119.5,0.0235,-0.0114
119.601,0.024,-0.0117
119.7,0.0235,-0.01155
119.8,0.0235,-0.0117
119.901,0.0235,-0.01185
120,0.0235,-0.01185
120.1,0.0225,-0.0117
120.2,0.0225,-0.0117
120.3,0.0225,-0.01155
120.401,0.023,-0.01185
120.501,0.0235,-0.01185
120.6,0.0235,-0.0117
120.7,0.024,-0.01185
120.801,0.023,-0.012
120.9,0.023,-0.01185
121,0.023,-0.01185
121.1,0.022,-0.01185
121.2,0.023,-0.01185
121.301,0.023,-0.012
121.401,0.023,-0.012
121.5,0.023,-0.012
121.6,0.023,-0.012
121.701,0.0225,-0.01215
121.8,0.0225,-0.012
121.901,0.0225,-0.012
122,0.0225,-0.01215
122.1,0.0225,-0.01215
122.2,0.0225,-0.01215
122.3,0.0225,-0.01215
122.401,0.022,-0.0123
122.501,0.022,-0.0123
122.601,0.022,-0.0123
122.7,0.022,-0.0123
122.8,0.0225,-0.0123
122.9,0.022,-0.0123
123,0.022,-0.0123
123.099,0.0225,-0.0126
123.2,0.022,-0.0123
123.301,0.022,-0.0123
123.401,0.022,-0.0123
123.501,0.022,-0.01215
123.6,0.022,-0.01215
123.7,0.022,-0.01215
123.799,0.022,-0.01245
123.9,0.022,-0.012
124,0.022,-0.012
124.099,0.022,-0.0123
124.2,0.0215,-0.01185
124.3,0.0215,-0.012
124.4,0.0215,-0.01215
124.5,0.0215,-0.01185
124.6,0.0215,-0.012
124.7,0.0215,-0.0114
124.801,0.0215,-0.01155
124.9,0.021,-0.01185
125,0.021,-0.01185
125.1,0.021,-0.01095
125.201,0.021,-0.0114
125.3,0.021,-0.0117
125.401,0.021,-0.0114
125.5,0.021,-0.0117
125.6,0.021,-0.0117
125.701,0.021,-0.01125
125.8,0.021,-0.01155
125.9,0.021,-0.01155
126,0.021,-0.01155
126.1,0.021,-0.01155
126.2,0.0205,-0.0114
126.301,0.021,-0.01095
126.4,0.0205,-0.0114
126.499,0.0205,-0.01185
126.6,0.0205,-0.0114
126.7,0.0205,-0.01125
126.8,0.0205,-0.01125
126.899,0.0205,-0.01185
127,0.0205,-0.01125
127.1,0.0205,-0.01125
127.2,0.0205,-0.0108
127.3,0.0205,-0.01125
127.401,0.0205,-0.0108
127.5,0.0205,-0.01125
127.6,0.0205,-0.01125
127.7,0.0205,-0.01125
127.799,0.02,-0.0117
127.899,0.02,-0.0117
128,0.02,-0.0111
128.1,0.02,-0.0111
128.2,0.02,-0.0111
128.301,0.02,-0.01065
128.4,0.02,-0.01095
128.501,0.0195,-0.01065
128.6,0.02,-0.0108
128.701,0.02,-0.0105
128.8,0.02,-0.0108
128.9,0.0195,-0.0105
129,0.02,-0.0108
129.101,0.0195,-0.0105
129.2,0.0195,-0.0108
129.301,0.0195,-0.0105
129.401,0.0195,-0.01035
129.5,0.0195,-0.0108
129.6,0.0195,-0.01065
129.701,0.019,-0.0105
129.8,0.0195,-0.01065
129.9,0.0195,-0.01065
130,0.019,-0.01065
130.101,0.019,-0.01065
130.2,0.019,-0.01065
130.3,0.019,-0.01065
130.399,0.019,-0.01095
130.5,0.019,-0.01065
130.6,0.019,-0.01065
130.7,0.019,-0.0108
130.8,0.019,-0.0108
130.902,0.0185,-0.01095
131,0.019,-0.01095
131.1,0.0185,-0.01095
131.2,0.0185,-0.01095
131.3,0.019,-0.0111
131.4,0.0185,-0.0111
131.5,0.0185,-0.0111
131.6,0.0185,-0.01125
131.699,0.0185,-0.0114
131.8,0.0185,-0.01125
131.9,0.0185,-0.01125
132,0.0185,-0.01125
132.101,0.018,-0.01155
132.201,0.018,-0.0117
132.3,0.0185,-0.0114
132.4,0.0185,-0.0114
132.5,0.018,-0.01155
132.6,0.018,-0.01155
132.701,0.018,-0.012
132.801,0.018,-0.01215
132.9,0.018,-0.01185
133.001,0.018,-0.01215
133.101,0.018,-0.01215
133.2,0.018,-0.012
133.301,0.0175,-0.01245
133.401,0.0175,-0.0126
133.5,0.018,-0.01215
133.601,0.0175,-0.01275
133.701,0.0175,-0.0123
133.8,0.0175,-0.0123
133.901,0.0175,-0.0129
134,0.0175,-0.01245
134.101,0.0175,-0.01305
134.2,0.0175,-0.0126
134.3,0.0175,-0.0126
134.4,0.0175,-0.0126
134.501,0.017,-0.0135
134.601,0.0165,-0.01365
134.701,0.0165,-0.0138
134.8,0.017,-0.01305
134.9,0.017,-0.01305
135,0.017,-0.0132
135.1,0.017,-0.01335
135.2,0.017,-0.0135
135.3,0.017,-0.0135
135.399,0.017,-0.01305
135.5,0.0165,-0.0138
135.601,0.015,-0.0147
135.7,0.0165,-0.01395
135.799,0.017,-0.01335
135.899,0.017,-0.01335
135.999,0.017,-0.01365
136.099,0.017,-0.01365
136.2,0.016,-0.01455
136.301,0.0145,-0.01545
136.4,0.016,-0.0147
136.5,0.016,-0.01485
136.599,0.0165,-0.01395
136.7,0.0155,-0.01485
136.8,0.0155,-0.015
136.9,0.0155,-0.015
136.999,0.0165,-0.01425
137.1,0.015,-0.0153
137.201,0.014,-0.01665
137.3,0.0145,-0.0156
137.4,0.0145,-0.0156
137.5,0.0145,-0.0159
137.6,0.014,-0.01605
137.701,0.014,-0.0162
137.8,0.0135,-0.0165
137.9,0.014,-0.01665
138,0.014,-0.01665
138.1,0.0135,-0.01695
138.2,0.0135,-0.0171
138.3,0.0135,-0.0174
138.4,0.0135,-0.0177
138.501,0.0135,-0.0189
138.601,0.0135,-0.01905
138.7,0.0135,-0.0183
138.8,0.0135,-0.02145
138.9,0.0135,-0.01845
139.001,0.013,-0.0186
139.102,0.014,-0.02115
139.201,0.0135,-0.0201
139.3,0.013,-0.0189
139.4,0.013,-0.01905
139.5,0.013,-0.01935
139.601,0.0135,-0.02085
139.7,0.013,-0.0198
139.8,0.013,-0.0201
139.901,0.013,-0.02025
140,0.013,-0.02055
140.1,0.013,-0.02085
140.2,0.013,-0.021
140.3,0.013,-0.02115
140.401,0.013,-0.02265
140.5,0.013,-0.0216
140.601,0.0135,-0.0231
140.7,0.013,-0.02205
140.8,0.013,-0.0222
140.9,0.013,-0.02235
141,0.013,-0.0225
141.1,0.013,-0.02265
141.2,0.0125,-0.02295
141.3,0.0125,-0.0231
141.4,0.0125,-0.02325
141.5,0.0125,-0.02355
141.6,0.013,-0.0246
141.7,0.0125,-0.024
141.801,0.013,-0.0258
141.9,0.0125,-0.0243
142.001,0.013,-0.0255
142.101,0.013,-0.0258
142.2,0.013,-0.02505
142.301,0.013,-0.02625
142.4,0.013,-0.0255
142.5,0.0125,-0.02565
142.6,0.0125,-0.02595
142.7,0.0125,-0.0261
142.801,0.0125,-0.02685
142.9,0.0125,-0.0264
143.001,0.013,-0.0273
143.101,0.0125,-0.02745
143.2,0.0125,-0.0261
143.3,0.0125,-0.0273
143.401,0.013,-0.02805
143.5,0.0125,-0.02775
143.601,0.0125,-0.0282
143.699,0.0125,-0.02715
143.8,0.0125,-0.0282
143.9,0.0125,-0.02835
144,0.0125,-0.0285
144.1,0.0125,-0.02865
144.2,0.0125,-0.0288
144.302,0.013,-0.0288
144.4,0.012,-0.0291
144.5,0.0125,-0.02925
144.601,0.013,-0.0294
144.7,0.0125,-0.0294
144.8,0.0125,-0.02955
144.9,0.0125,-0.0297
144.999,0.012,-0.02955
145.1,0.0125,-0.03
145.199,0.012,-0.03
145.3,0.0125,-0.03045
145.4,0.0125,-0.03045
145.5,0.012,-0.03075
145.6,0.012,-0.03105
145.7,0.012,-0.03105
145.8,0.012,-0.03135
145.9,0.012,-0.0315
146.001,0.0125,-0.0315
146.101,0.0125,-0.0315
146.2,0.012,-0.03195
146.3,0.012,-0.0321
146.4,0.012,-0.0324
146.501,0.012,-0.03255
146.6,0.012,-0.03255
146.701,0.0125,-0.03225
146.801,0.0125,-0.0324
146.9,0.012,-0.03315
147,0.012,-0.0333
147.1,0.012,-0.03345
147.199,0.0115,-0.03375
147.3,0.012,-0.0336
147.4,0.012,-0.0339
147.5,0.012,-0.0333
147.6,0.012,-0.03405
147.7,0.012,-0.0342
147.801,0.012,-0.03375
147.9,0.012,-0.0345
148,0.012,-0.0348
148.101,0.012,-0.0339
148.2,0.012,-0.0351
148.301,0.012,-0.0342
148.4,0.012,-0.03525
148.5,0.012,-0.0354
148.6,0.012,-0.0354
148.7,0.0115,-0.03555
148.8,0.012,-0.0357
148.9,0.012,-0.03585
149.001,0.012,-0.0351
149.1,0.0115,-0.0363
149.2,0.0115,-0.03615
149.3,0.012,-0.03525
149.401,0.012,-0.0354
149.5,0.0115,-0.0366
149.6,0.0115,-0.0366
149.7,0.0115,-0.03675
149.8,0.0115,-0.03705
149.9,0.0115,-0.0372
150,0.0115,-0.03735
150.1,0.0115,-0.0375
150.199,0.0115,-0.03855
150.3,0.0115,-0.0378
150.401,0.012,-0.0372
150.501,0.012,-0.0366
150.6,0.0115,-0.03825
150.701,0.012,-0.0375
150.8,0.0115,-0.0384
150.9,0.0115,-0.03855
151.001,0.012,-0.0375
151.1,0.0115,-0.03765
151.2,0.0115,-0.03885
151.301,0.012,-0.03795
151.4,0.0115,-0.03915
151.5,0.0115,-0.0393
151.6,0.0115,-0.03945
151.7,0.0115,-0.0393
151.799,0.011,-0.0411
151.9,0.0115,-0.0402
152,0.0115,-0.04005
152.1,0.0115,-0.04005
152.2,0.0115,-0.0405
152.301,0.0115,-0.03915
152.4,0.0115,-0.0411
152.5,0.0115,-0.04065
152.601,0.0115,-0.03945
152.701,0.0115,-0.03975
152.8,0.0115,-0.0414
152.901,0.012,-0.04005
153.001,0.0115,-0.0402
153.101,0.0115,-0.0405
153.2,0.0115,-0.04065
153.3,0.0115,-0.04185
153.4,0.0115,-0.042
153.499,0.011,-0.0411
153.601,0.0125,-0.0411
153.7,0.0115,-0.0423
153.8,0.011,-0.04245
153.899,0.011,-0.0438
153.999,0.011,-0.0438
154.1,0.011,-0.0426
154.2,0.011,-0.04275
154.3,0.0115,-0.0429
154.4,0.0115,-0.04305
154.499,0.011,-0.04455
154.6,0.0115,-0.04365
154.699,0.011,-0.045
154.8,0.0115,-0.0435
154.901,0.0115,-0.04185
155.001,0.0115,-0.04275
155.1,0.012,-0.04395
155.199,0.011,-0.04515
155.3,0.0105,-0.0444
155.4,0.0115,-0.04455
155.5,0.011,-0.0447
155.601,0.012,-0.0447
155.7,0.0115,-0.045
155.8,0.011,-0.04515
155.9,0.011,-0.0453
156,0.011,-0.0456
156.099,0.011,-0.0468
156.2,0.011,-0.04605
156.3,0.011,-0.0462
156.4,0.011,-0.04635
156.5,0.011,-0.0465
156.6,0.011,-0.0468
156.701,0.0105,-0.04605
156.8,0.011,-0.0471
156.901,0.011,-0.04635
157,0.011,-0.04725
157.1,0.011,-0.04755
157.199,0.0115,-0.0486
157.3,0.011,-0.04785
157.4,0.011,-0.04815
157.499,0.011,-0.0492
157.6,0.0105,-0.0483
157.7,0.011,-0.0486
157.8,0.0105,-0.04875
157.9,0.0105,-0.04845
158,0.0105,-0.0495
158.101,0.0105,-0.0495
158.2,0.0105,-0.04995
158.3,0.0105,-0.0504
158.401,0.0105,-0.05025
158.5,0.01,-0.0507
158.601,0.0105,-0.05085
158.7,0.0105,-0.0513
158.8,0.0105,-0.0516
158.899,0.0105,-0.0522
159,0.0105,-0.05205
159.1,0.0105,-0.05235
159.2,0.01,-0.05265
159.3,0.01,-0.05295
159.401,0.0105,-0.0531
159.5,0.01,-0.0531
159.6,0.0105,-0.0534
159.7,0.01,-0.05355
159.8,0.01,-0.054
159.899,0.01,-0.0543
160,0.01,-0.0543
160.1,0.01,-0.05445
160.199,0.01,-0.0549
160.3,0.01,-0.05505
160.4,0.01,-0.05505
160.501,0.01,-0.05535
160.6,0.01,-0.05565
160.7,0.01,-0.0558
160.801,0.01,-0.05625
160.9,0.01,-0.05625
160.999,0.01,-0.0564
161.1,0.01,-0.05655
161.2,0.01,-0.05685
161.3,0.01,-0.05715
161.4,0.01,-0.0573
161.499,0.01,-0.0576
161.6,0.01,-0.05775
161.7,0.0095,-0.0582
161.8,0.009,-0.05895
161.9,0.0095,-0.05835
162,0.0095,-0.0585
162.099,0.0095,-0.0588
162.2,0.0095,-0.0591
162.299,0.0095,-0.05895
162.4,0.0095,-0.0594
162.5,0.0095,-0.05955
162.601,0.009,-0.0603
162.7,0.009,-0.06015
162.8,0.009,-0.0609
162.9,0.009,-0.0606
162.999,0.0095,-0.06045
163.1,0.009,-0.0615
163.201,0.009,-0.06165
163.3,0.009,-0.0612
163.399,0.0095,-0.0612
163.5,0.0095,-0.06135
163.6,0.009,-0.0618
163.7,0.009,-0.06195
163.8,0.009,-0.0621
163.9,0.009,-0.0624
164.001,0.0085,-0.06345
164.101,0.009,-0.063
164.2,0.0085,-0.06315
164.3,0.0085,-0.0633
164.4,0.0085,-0.06345
164.5,0.009,-0.06375
164.6,0.0085,-0.0639
164.7,0.0085,-0.0642
164.8,0.0085,-0.0645
164.9,0.0085,-0.0654
165,0.0085,-0.0648
165.1,0.0085,-0.0669
165.199,0.0085,-0.0645
165.299,0.0085,-0.06495
165.4,0.0085,-0.0657
165.501,0.008,-0.0669
165.599,0.0085,-0.06555
165.7,0.0085,-0.06645
165.801,0.008,-0.0675
165.901,0.008,-0.0678
166.001,0.008,-0.06795
166.1,0.008,-0.0672
166.201,0.008,-0.06825
166.3,0.008,-0.0675
166.4,0.008,-0.06795
166.5,0.008,-0.06795
166.6,0.008,-0.06825
166.699,0.0085,-0.06765
166.8,0.008,-0.0687
166.899,0.008,-0.0684
167,0.008,-0.0699
167.1,0.008,-0.0702
167.2,0.008,-0.0705
167.301,0.007,-0.07185
167.4,0.008,-0.0708
167.5,0.0075,-0.07095
167.601,0.007,-0.07245
167.7,0.008,-0.07155
167.8,0.0075,-0.07185
167.901,0.0065,-0.0732
168,0.0075,-0.07215
168.1,0.0075,-0.07245
168.2,0.0075,-0.0726
168.3,0.0075,-0.0729
168.4,0.0075,-0.0732
168.501,0.0055,-0.07455
168.6,0.0075,-0.07365
168.701,0.007,-0.0738
168.8,0.007,-0.07395
168.9,0.007,-0.0744
169.001,0.0055,-0.0756
169.1,0.007,-0.0747
169.2,0.0065,-0.075
169.299,0.0075,-0.07395
169.4,0.0065,-0.07545
169.5,0.0065,-0.0756
169.601,0.005,-0.07665
169.701,0.005,-0.07695
169.8,0.006,-0.07605
169.901,0.006,-0.0762
170,0.0055,-0.07635
170.1,0.006,-0.07635
170.2,0.0055,-0.0765
170.299,0.007,-0.0753
170.399,0.007,-0.0756
170.5,0.0055,-0.0768
170.6,0.005,-0.0771
170.701,0.0045,-0.07815
170.8,0.005,-0.0774
170.899,0.0065,-0.0765
171,0.0065,-0.0768
171.1,0.0045,-0.07785
171.2,0.0045,-0.078
171.301,0.0045,-0.07905
171.4,0.0045,-0.0783
171.5,0.0045,-0.07845
171.601,0.0045,-0.0795
171.7,0.0045,-0.0789
171.8,0.0045,-0.07905
171.9,0.0045,-0.0804
172,0.004,-0.08055
172.1,0.004,-0.08235
172.2,0.004,-0.0807
172.299,0.005,-0.0798
172.4,0.0045,-0.08175
172.501,0.0045,-0.08205
172.6,0.004,-0.0813
172.7,0.004,-0.0813
172.8,0.004,-0.08145
172.901,0.0045,-0.08265
173.001,0.0045,-0.0828
173.1,0.004,-0.0819
173.2,0.004,-0.08205
173.3,0.004,-0.08235
173.4,0.004,-0.0825
173.501,0.004,-0.08355
173.6,0.004,-0.0828
173.7,0.004,-0.0828
173.8,0.004,-0.0828
173.899,0.004,-0.0822
174,0.004,-0.0828
174.1,0.004,-0.08295
174.201,0.004,-0.08385
174.3,0.004,-0.0834
174.4,0.004,-0.0837
174.501,0.0045,-0.0852
174.6,0.004,-0.0843
174.699,0.0035,-0.08325
174.8,0.004,-0.0843
174.899,0.0035,-0.08325
175,0.004,-0.0843
175.1,0.004,-0.0843
175.199,0.0035,-0.08355
175.3,0.004,-0.0846
175.4,0.004,-0.0846
175.499,0.0035,-0.0837
175.6,0.004,-0.0846
175.7,0.0035,-0.08445
175.8,0.004,-0.08445
175.9,0.004,-0.0843
176,0.004,-0.08415
176.1,0.004,-0.084
176.2,0.004,-0.08415
176.3,0.004,-0.08415
176.4,0.004,-0.08415
176.5,0.004,-0.08415
176.6,0.004,-0.084
176.699,0.004,-0.084
176.8,0.004,-0.08355
176.899,0.0035,-0.08325
176.999,0.0035,-0.0837
177.1,0.004,-0.0837
177.201,0.004,-0.08355
177.3,0.004,-0.0834
177.4,0.004,-0.08325
177.501,0.004,-0.08325
177.6,0.004,-0.08325
177.7,0.004,-0.0834
177.8,0.0035,-0.0834
177.899,0.0035,-0.0831
178,0.004,-0.08295
178.1,0.004,-0.08295
178.2,0.004,-0.0828
178.301,0.004,-0.0825
178.4,0.0035,-0.0825
178.499,0.004,-0.08235
178.599,0.0035,-0.08235
178.7,0.004,-0.0822
178.8,0.0035,-0.08205
178.9,0.004,-0.0819
179,0.004,-0.08175
179.1,0.0035,-0.08145
179.2,0.004,-0.08145
179.3,0.004,-0.0813
179.4,0.004,-0.081
179.5,0.004,-0.0807
179.6,0.004,-0.08055
179.7,0.0035,-0.08025
179.8,0.004,-0.07995
179.9,0.004,-0.0798
180,0.004,-0.0795
180.099,0.0035,-0.07965
180.2,0.0035,-0.0792
180.3,0.004,-0.07875
180.4,0.004,-0.07845
180.5,0.004,-0.07815
180.601,0.004,-0.0771
180.702,0.0045,-0.07635
180.8,0.004,-0.0777
180.9,0.004,-0.0774
181,0.004,-0.0771
181.099,0.0035,-0.07725
181.199,0.004,-0.0765
181.3,0.004,-0.0762
181.401,0.004,-0.07515
181.5,0.004,-0.07575
181.601,0.004,-0.07395
181.7,0.004,-0.0744
181.8,0.004,-0.07305
181.9,0.004,-0.07365
182,0.0035,-0.0735
182.1,0.0035,-0.07305
182.201,0.004,-0.0717
182.3,0.004,-0.07215
182.4,0.004,-0.0714
182.499,0.0035,-0.0717
182.599,0.0035,-0.07125
182.699,0.0035,-0.0705
182.8,0.0035,-0.06915
182.902,0.004,-0.06675
183,0.0035,-0.06825
183.1,0.004,-0.0678
183.202,0.0045,-0.0651
183.3,0.004,-0.0669
183.4,0.004,-0.0663
183.5,0.004,-0.06585
183.6,0.004,-0.06555
183.699,0.0035,-0.06585
183.8,0.004,-0.06435
183.9,0.004,-0.0639
184,0.004,-0.06345
184.1,0.004,-0.06285
184.2,0.004,-0.06255
184.299,0.0035,-0.063
184.399,0.0035,-0.06165
184.5,0.004,-0.06045
184.6,0.004,-0.05805
184.7,0.0035,-0.0564
184.8,0.004,-0.05505
184.9,0.004,-0.0546
185,0.0035,-0.05385
185.1,0.004,-0.05355
185.2,0.004,-0.0534
185.3,0.004,-0.05205
185.401,0.004,-0.05055
185.5,0.0035,-0.051
185.6,0.004,-0.0504
185.7,0.004,-0.0504
185.8,0.004,-0.04965
185.9,0.004,-0.04905
186,0.004,-0.04845
186.1,0.004,-0.04785
186.201,0.0045,-0.04635
186.3,0.004,-0.04665
186.4,0.004,-0.04605
186.5,0.004,-0.0462
186.6,0.0035,-0.04545
186.7,0.004,-0.0447
186.8,0.004,-0.04395
186.9,0.004,-0.0435
186.999,0.0035,-0.04365
187.1,0.004,-0.0423
187.2,0.004,-0.0417
187.3,0.004,-0.04095
187.401,0.004,-0.0396
187.5,0.0045,-0.03885
187.6,0.004,-0.0387
187.7,0.004,-0.03795
187.8,0.004,-0.0372
187.899,0.0035,-0.03765
188,0.004,-0.03615
188.1,0.004,-0.03585
188.2,0.004,-0.0351
188.301,0.004,-0.0345
188.4,0.004,-0.033
188.5,0.003,-0.03315
188.6,0.0035,-0.0324
188.7,0.0045,-0.03165
188.8,0.003,-0.03105
188.901,0.004,-0.0294
189,0.004,-0.02865
189.1,0.0045,-0.02865
189.2,0.0035,-0.0279
189.301,0.004,-0.0264
189.4,0.004,-0.02595
189.501,0.004,-0.0294
189.6,0.004,-0.02055
189.699,0.0035,-0.01755
189.799,0.0035,-0.02085
189.9,0.004,-0.02115
189.999,0.0035,-0.02115
190.099,0.0035,-0.02205
190.2,0.0035,-0.02145
190.3,0.004,-0.02175
190.4,0.004,-0.021
190.5,0.004,-0.0198
190.6,0.004,-0.00285
190.7,0.004,0
190.801,0.0035,-0.00075
190.901,0.0035,-0.0003
191,0.004,0.00165
191.099,0.0035,0.0036
191.2,0.004,0.0039
191.299,0.0045,0.0057
191.4,0.004,0.00525
191.5,0.004,0.006
191.601,0.0035,0.00555
191.701,0.0035,0.0063
191.8,0.0035,0.00705
191.901,0.0035,0.00795
192,0.0035,0.01005
192.101,0.0035,0.01125
192.2,0.0035,0.01215
192.301,0.0035,0.012
192.4,0.003,0.01455
192.501,0.0035,0.0156
192.6,0.003,0.0159
192.7,0.0035,0.01695
192.801,0.0035,0.01695
192.9,0.0035,0.0192
192.999,0.0035,0.0216
193.1,0.0035,0.02115
193.2,0.0035,0.0219
193.3,0.0035,0.0231
193.401,0.0035,0.02295
193.5,0.003,0.0255
193.6,0.003,0.0267
193.7,0.003,0.03045
193.8,0.003,0.03195
193.9,0.003,0.03375
194,0.003,0.03525
194.1,0.003,0.0366
194.201,0.0035,0.0369
194.3,0.003,0.0399
194.4,0.003,0.04455
194.5,0.003,0.04515
194.6,0.003,0.04635
194.699,0.003,0.0483
194.8,0.003,0.04845
194.899,0.003,0.0516
195,0.003,0.0516
195.1,0.003,0.0531
195.2,0.003,0.05475
195.299,0.003,0.0579
195.4,0.003,0.0579
195.5,0.003,0.0588
195.6,0.003,0.0603
195.7,0.003,0.0615
195.8,0.003,0.063
195.9,0.003,0.06465
195.999,0.003,0.0678
196.099,0.003,0.069
196.2,0.003,0.0696
196.301,0.0025,0.0714
196.401,0.0025,0.0732
196.5,0.003,0.0747
196.6,0.003,0.0768
196.7,0.0025,0.078
196.801,0.0025,0.0792
196.9,0.0025,0.08235
197.001,0.0025,0.08325
197.101,0.0025,0.08475
197.201,0.0025,0.08685
197.301,0.002,0.08865
197.4,0.0025,0.09135
197.499,0.0025,0.09495
197.6,0.0025,0.09615
197.699,0.0025,0.0996
197.799,0.0025,0.102
197.901,0.002,0.1026
197.999,0.0025,0.10665
198.1,0.002,0.10785
198.2,0.002,0.1098
198.301,0.002,0.111
198.4,0.002,0.1143
198.5,0.002,0.1167
198.6,0.002,0.1185
198.7,0.002,0.12075
198.8,0.002,0.12375
198.9,0.002,0.12675
199,0.002,0.1296
199.1,0.002,0.13215
199.199,0.002,0.1353
199.3,0.0015,0.13725
199.4,0.0015,0.1398
199.5,0.0015,0.13965
199.6,0.0015,0.1434
199.7,0.0015,0.1455
199.8,0.0015,0.1479
199.9,0.001,0.1509
199.999,0.002,0.15525
200.101,0.0015,0.15675
200.2,0.0015,0.15975
200.299,0.0015,0.162
200.4,0.0015,0.16425
200.501,0.0015,0.16725
200.6,0.0015,0.1707
200.7,0.0015,0.17445
200.8,0.0015,0.177
200.9,0.0015,0.1794
200.999,0.0015,0.18255
201.1,0.0015,0.1845
201.2,0.0015,0.18705
201.3,0.0015,0.18945
201.4,0.0015,0.19185
201.5,0.001,0.19365
201.6,0.001,0.19545
201.7,0.0015,0.198
201.8,0.001,0.19875
201.9,0.001,0.20085
202,0.001,0.2031
202.099,0.0015,0.2031
202.2,0.001,0.20625
202.3,0.001,0.2082
202.4,0.001,0.20955
202.5,0.001,0.21135
202.601,0,0.2133
202.7,0.001,0.2148
202.8,0.001,0.21645
202.9,0.001,0.21825
203,0.001,0.22005
203.1,0.0005,0.22125
203.199,0.001,0.22305
203.3,0.0005,0.2247
203.4,0,0.2268
203.5,0,0.22845
203.601,-0.0005,0.2301
203.701,-0.0005,0.2319
203.8,0.0005,0.2328
203.899,0.001,0.2346
204,0,0.23655
204.099,0.001,0.23805
204.2,0,0.24015
204.3,0,0.2421
204.4,0,0.2433
204.499,0.0005,0.2448
204.6,0,0.2466
204.7,0,0.2472
204.8,0,0.2493
204.899,0.0005,0.2502
205,0,0.25275
205.099,0.0005,0.2544
205.2,0,0.25665
205.3,-0.0005,0.259
205.4,-0.0005,0.2605
205.5,-0.0005,0.262
205.6,-0.001,0.2635
205.699,0,0.2645
205.8,-0.001,0.2675
205.9,-0.001,0.2695
205.999,0,0.2705
206.1,-0.001,0.2735
206.199,0,0.2735
206.3,-0.0015,0.276
206.4,-0.0015,0.2775
206.5,-0.0015,0.279
206.6,-0.0015,0.2805
206.701,-0.0015,0.283
206.8,-0.001,0.288
206.901,-0.0015,0.286
207,-0.0015,0.286
207.1,-0.002,0.288
207.2,-0.0015,0.2895
207.3,-0.002,0.2915
207.4,-0.0015,0.293
207.5,-0.002,0.2945
207.6,-0.002,0.296
207.699,-0.0015,0.2955
207.8,-0.002,0.2985
207.9,-0.0015,0.2995
208.001,-0.0015,0.3015
208.1,-0.0015,0.3
208.2,-0.0015,0.3005
208.301,-0.0015,0.3005
208.4,-0.0015,0.3005
208.5,-0.001,0.302
208.6,-0.001,0.302
208.7,-0.0015,0.2995
208.799,-0.002,0.2985
208.9,-0.0015,0.3005
209,-0.0015,0.3
209.1,-0.0015,0.2995
209.201,-0.001,0.3025
209.301,-0.0015,0.3015
209.4,-0.0015,0.302
209.5,-0.0015,0.303
209.601,-0.001,0.3055
209.7,-0.0015,0.304
209.801,-0.0015,0.307
209.9,-0.0015,0.3055
210,-0.0015,0.307
210.101,-0.001,0.309
210.2,-0.001,0.308
210.301,-0.001,0.3105
210.399,-0.0015,0.3075
210.5,-0.0015,0.3105
210.599,-0.0015,0.3095
210.699,-0.0015,0.3105
210.8,-0.0015,0.3135
210.9,-0.0015,0.3145
211,-0.0015,0.315
211.1,-0.0015,0.3155
211.2,-0.0015,0.3165
211.3,-0.0015,0.3165
211.4,-0.0015,0.317
211.501,-0.001,0.3195
211.6,-0.0015,0.318
211.7,-0.0015,0.3185
211.8,-0.0015,0.319
211.9,-0.0015,0.32
212,-0.0015,0.3205
212.1,-0.0015,0.321
212.199,-0.0015,0.32
212.3,-0.0015,0.3225
212.4,-0.0015,0.323
212.5,-0.0015,0.323
212.6,-0.001,0.325
212.7,-0.0015,0.3245
212.801,-0.001,0.326
212.9,-0.0015,0.325
213,-0.0015,0.3255
213.101,-0.001,0.327
213.2,-0.0015,0.3265
213.301,-0.001,0.3285
213.4,-0.0015,0.3275
213.501,-0.001,0.3285
213.601,-0.001,0.3285
213.701,-0.001,0.3285
213.8,-0.0015,0.3275
213.9,-0.0015,0.3275
214,-0.0015,0.328
214.1,-0.0015,0.328
214.2,-0.0015,0.3285
214.3,-0.0015,0.329
214.4,-0.0015,0.3295
214.501,-0.001,0.3305
214.6,-0.0015,0.3305
214.701,-0.0015,0.3315
214.8,-0.0015,0.331
214.9,-0.0015,0.331
215,-0.0015,0.3315
215.101,-0.001,0.3325
215.2,-0.0015,0.3325
215.3,-0.0015,0.3325
215.4,-0.0015,0.333
215.5,-0.0015,0.3335
215.6,-0.0015,0.334
215.699,-0.002,0.3335
215.8,-0.0015,0.335
215.9,-0.0015,0.3355
216,-0.0015,0.336
216.1,-0.001,0.3365
216.2,-0.0015,0.3375
216.3,-0.0015,0.338
216.4,-0.001,0.338
216.5,-0.0015,0.3385
216.599,-0.002,0.3385
216.7,-0.0015,0.3395
216.8,-0.0015,0.3395
216.899,-0.002,0.34
217,-0.0015,0.34
217.101,-0.001,0.3405
217.201,-0.001,0.3395
217.3,-0.0015,0.3415
217.401,-0.001,0.3415
217.5,-0.001,0.3395
217.601,-0.001,0.3425
217.7,-0.0015,0.3435
217.8,-0.0015,0.343
217.9,-0.001,0.3425
218,-0.0015,0.3435
218.1,-0.0015,0.344
218.2,-0.0015,0.3445
218.3,-0.0015,0.3445
218.4,-0.0015,0.3455
218.5,-0.0015,0.3455
218.601,-0.001,0.3425
218.7,-0.0015,0.3455
218.8,-0.0015,0.345
218.9,-0.0015,0.3475
219.001,-0.001,0.345
219.1,-0.0015,0.347
219.199,-0.0015,0.347
219.3,-0.0015,0.3465
219.4,-0.0015,0.3465
219.5,-0.0015,0.347
219.6,-0.0015,0.347
219.7,-0.0015,0.347
219.799,-0.002,0.348
219.899,-0.001,0.345
219.999,-0.0015,0.3485
220.1,-0.0015,0.347
220.2,-0.0015,0.3475
220.3,-0.0015,0.3485
220.4,-0.0015,0.35
220.5,-0.0015,0.35
220.599,-0.0015,0.3505
220.7,-0.0015,0.3495
220.8,-0.0015,0.3475
220.9,-0.0015,0.3465
221,-0.001,0.342
221.1,-0.0015,0.3465
221.2,-0.001,0.3465
221.301,-0.001,0.3455
221.4,-0.001,0.348
221.5,-0.001,0.3485
221.6,-0.001,0.35
221.7,-0.0005,0.35
221.799,-0.0015,0.352
221.9,-0.0005,0.3485
222.001,-0.001,0.3465
222.1,-0.002,0.351
222.201,-0.002,0.35
222.3,-0.0005,0.351
222.4,-0.001,0.3505
222.5,-0.001,0.3515
222.6,-0.001,0.352
222.7,-0.001,0.3525
222.8,-0.001,0.3515
222.901,-0.0015,0.3495
223,-0.0015,0.3525
223.1,-0.0015,0.353
223.2,-0.0015,0.3525
223.3,-0.0015,0.354
223.4,-0.0015,0.3505
223.5,-0.0015,0.3535
223.6,-0.0015,0.3535
223.7,-0.0015,0.3535
223.8,-0.001,0.353
223.9,-0.0015,0.3535
224,-0.0015,0.3495
224.1,-0.0015,0.3515
224.201,-0.0015,0.3505
224.3,-0.0015,0.3505
224.399,-0.0015,0.355
224.5,-0.0015,0.353
224.6,-0.002,0.3535
224.7,-0.0015,0.3525
224.801,-0.0015,0.3505
224.9,-0.0015,0.3525
225,-0.0015,0.3525
225.099,-0.0015,0.3545
225.2,-0.0015,0.3535
225.3,-0.0015,0.3535
225.4,-0.0015,0.354
225.5,-0.002,0.354
225.601,-0.002,0.354
225.7,-0.0015,0.354
225.8,-0.0015,0.3545
225.901,-0.0015,0.351
226.001,-0.0015,0.35
226.1,-0.0015,0.351
226.201,-0.0015,0.3465
226.3,-0.0015,0.352
226.401,-0.0015,0.3495
226.5,-0.0015,0.348
226.6,-0.0015,0.3475
226.7,-0.0015,0.349
226.8,-0.0015,0.351
226.901,-0.002,0.3475
227,-0.0015,0.35
227.1,-0.002,0.351
227.2,-0.002,0.351
227.3,-0.002,0.3485
227.4,-0.002,0.35
227.5,-0.002,0.349
227.601,-0.002,0.347
227.7,-0.002,0.348
227.8,-0.002,0.3475
227.901,-0.002,0.3445
228,-0.0025,0.3455
228.101,-0.0025,0.348
228.2,-0.002,0.3475
228.3,-0.002,0.3455
228.4,-0.0025,0.3445
228.5,-0.002,0.348
228.6,-0.0025,0.3455
228.7,-0.0025,0.3415
228.8,-0.0025,0.3465
228.899,-0.0025,0.341
229,-0.0025,0.3425
229.101,-0.0025,0.3425
229.2,-0.0025,0.3435
229.3,-0.0025,0.344
229.401,-0.0025,0.3435
229.5,-0.0025,0.3445
229.599,-0.0025,0.346
229.7,-0.0025,0.345
229.8,-0.0025,0.345
229.9,-0.0025,0.3455
230,-0.0025,0.346
230.099,-0.0025,0.347
230.199,-0.0025,0.346
230.299,-0.0025,0.3475
230.4,-0.003,0.3475
230.5,-0.003,0.348
230.6,-0.004,0.349
230.701,-0.003,0.348
230.801,-0.003,0.348
230.902,-0.0045,0.35
231,-0.003,0.349
231.101,-0.0035,0.3495
231.2,-0.003,0.3495
231.299,-0.003,0.35
231.4,-0.003,0.3495
231.5,-0.003,0.3495
231.601,-0.004,0.3505
231.7,-0.003,0.3505
231.801,-0.004,0.351
231.9,-0.003,0.3505
232,-0.0035,0.351
232.099,-0.0035,0.3505
232.2,-0.0035,0.348
232.3,-0.005,0.349
232.4,-0.0035,0.348
232.5,-0.0035,0.3475
232.6,-0.0035,0.348
232.7,-0.004,0.3485
232.8,-0.004,0.3485
232.899,-0.004,0.3465
233,-0.004,0.346
233.1,-0.004,0.346
233.2,-0.004,0.3465
233.3,-0.0045,0.3465
233.4,-0.0045,0.3465
233.501,-0.006,0.348
233.601,-0.006,0.3485
233.7,-0.005,0.347
233.8,-0.005,0.347
233.9,-0.005,0.347
234,-0.0055,0.348
234.1,-0.005,0.3485
234.201,-0.0065,0.351
234.3,-0.0055,0.3495
234.4,-0.0055,0.3495
234.5,-0.0055,0.35
234.6,-0.006,0.35
234.7,-0.006,0.3505
234.8,-0.006,0.3505
234.9,-0.006,0.351
235.001,-0.006,0.353
235.101,-0.006,0.353
235.201,-0.006,0.3535
235.3,-0.0065,0.352
235.401,-0.006,0.354
235.5,-0.0065,0.3525
235.6,-0.006,0.3545
235.7,-0.0065,0.353
235.799,-0.0055,0.3515
235.9,-0.0065,0.353
236.001,-0.006,0.358
236.1,-0.006,0.352
236.2,-0.0065,0.354
236.3,-0.0065,0.354
236.399,-0.006,0.352
236.5,-0.006,0.354
236.599,-0.0065,0.352
236.7,-0.0065,0.3545
236.801,-0.0065,0.3545
236.9,-0.006,0.355
237,-0.0065,0.355
237.099,-0.0065,0.3535
237.2,-0.006,0.3555
237.3,-0.0065,0.356
237.401,-0.006,0.3585
237.5,-0.006,0.356
237.6,-0.006,0.356
237.7,-0.0065,0.3565
237.8,-0.0065,0.3565
237.9,-0.006,0.3565
238.001,-0.006,0.3595
238.1,-0.006,0.3565
238.2,-0.006,0.357
238.299,-0.0065,0.355
238.401,-0.006,0.3605
238.5,-0.006,0.358
238.601,-0.0055,0.3605
238.7,-0.0055,0.3585
238.799,-0.0065,0.3565
238.899,-0.0065,0.3565
239,-0.006,0.359
239.1,-0.006,0.3595
239.2,-0.006,0.3595
239.3,-0.006,0.3595
239.4,-0.006,0.3595
239.5,-0.006,0.36
239.599,-0.0065,0.3545
239.7,-0.006,0.3565
239.8,-0.006,0.3605
239.9,-0.006,0.348
240,-0.006,0.346
240.1,-0.006,0.3455
240.201,-0.0055,0.3475
240.3,-0.006,0.3455
240.4,-0.006,0.346
240.499,-0.0065,0.344
240.599,-0.006,0.345
240.7,-0.006,0.3525
240.8,-0.006,0.3585
240.899,-0.006,0.353
241,-0.006,0.355
241.1,-0.006,0.354
241.199,-0.006,0.35
241.3,-0.006,0.352
241.4,-0.006,0.354
241.5,-0.006,0.3555
241.6,-0.006,0.3555
241.7,-0.006,0.353
241.799,-0.006,0.3505
241.9,-0.006,0.355
242,-0.006,0.355
242.1,-0.006,0.355
242.2,-0.006,0.355
242.3,-0.006,0.354
242.399,-0.006,0.353
242.5,-0.0055,0.355
242.6,-0.006,0.3535
242.699,-0.006,0.35
242.8,-0.006,0.351
242.901,-0.0055,0.352
243.001,-0.0055,0.3515
243.1,-0.006,0.3515
243.2,-0.006,0.351
243.3,-0.006,0.351
243.399,-0.006,0.3485
243.5,-0.006,0.3495
243.6,-0.006,0.3495
243.701,-0.0055,0.3505
243.8,-0.006,0.3505
243.901,-0.0055,0.353
244,-0.006,0.352
244.1,-0.0055,0.354
244.2,-0.0055,0.354
244.3,-0.006,0.356
244.4,-0.0055,0.356
244.499,-0.006,0.3535
244.599,-0.006,0.353
244.7,-0.0055,0.3545
244.8,-0.0055,0.355
244.901,-0.0055,0.355
245,-0.0055,0.3555
245.1,-0.0055,0.3555
245.2,-0.0055,0.3545
245.301,-0.0055,0.3535
245.4,-0.0055,0.353
245.5,-0.0055,0.353
245.601,-0.0055,0.3535
245.7,-0.0055,0.353
245.8,-0.0055,0.3535
245.9,-0.006,0.354
246,-0.0055,0.3545
246.1,-0.0055,0.3545
246.2,-0.006,0.355
246.3,-0.005,0.3525
246.4,-0.0055,0.3565
246.5,-0.0055,0.356
246.599,-0.006,0.3555
246.7,-0.0055,0.3575
246.8,-0.0055,0.355
246.899,-0.006,0.355
247,-0.0055,0.355
247.1,-0.0055,0.355
247.199,-0.006,0.355
247.3,-0.0055,0.355
247.4,-0.0055,0.355
247.5,-0.0055,0.355
247.6,-0.0055,0.355
247.699,-0.006,0.3555
247.799,-0.006,0.3555
247.9,-0.0055,0.3545
248,-0.0055,0.3545
248.1,-0.0055,0.3545
248.2,-0.0055,0.3545
248.299,-0.006,0.356
248.4,-0.0055,0.3515
248.5,-0.0055,0.356
248.6,-0.0055,0.355
248.7,-0.0055,0.354
248.8,-0.0055,0.356
248.9,-0.0055,0.356
249,-0.0055,0.3565
249.1,-0.0055,0.3555
249.2,-0.0055,0.3555
249.3,-0.0055,0.3555
249.4,-0.0055,0.355
249.499,-0.006,0.3565
249.6,-0.0055,0.353
249.701,-0.005,0.3535
249.801,-0.005,0.354
249.901,-0.005,0.354
250,-0.0055,0.3565
250.1,-0.0055,0.357
250.201,-0.005,0.356
250.3,-0.0055,0.359
250.4,-0.0055,0.36
250.5,-0.0055,0.3605
250.599,-0.006,0.3635
250.7,-0.0055,0.362
250.8,-0.0055,0.3625
250.9,-0.0055,0.363
251.001,-0.0045,0.3615
251.101,-0.0045,0.362
251.2,-0.0055,0.3645
251.3,-0.0055,0.365
251.4,-0.0055,0.3695
251.5,-0.0055,0.372
251.6,-0.0055,0.3735
251.701,-0.005,0.373
251.8,-0.0055,0.3715
251.899,-0.0055,0.3785
252,-0.0055,0.3775
252.099,-0.0055,0.3765
252.2,-0.0055,0.379
252.3,-0.0055,0.3785
252.399,-0.0055,0.381
252.499,-0.006,0.3805
252.6,-0.0055,0.379
252.701,-0.005,0.3775
252.8,-0.005,0.3785
252.9,-0.005,0.3785
253,-0.0065,0.3785
253.1,-0.006,0.379
253.2,-0.005,0.379
253.3,-0.0055,0.377
253.399,-0.006,0.3815
253.5,-0.006,0.3795
253.6,-0.006,0.379
253.7,-0.0055,0.3795
253.801,-0.0055,0.377
253.9,-0.0065,0.379
254,-0.0065,0.3795
254.1,-0.005,0.3795
254.2,-0.005,0.3795
254.301,-0.005,0.377
254.4,-0.0055,0.379
254.5,-0.0055,0.379
254.6,-0.0055,0.3795
254.7,-0.005,0.3795
254.8,-0.0055,0.3795
254.9,-0.0055,0.38
255.001,-0.0055,0.3775
255.1,-0.0055,0.38
255.2,-0.0055,0.3795
255.3,-0.0055,0.38
255.401,-0.0055,0.3775
255.501,-0.0055,0.3775
255.6,-0.0055,0.38
255.7,-0.0055,0.38
255.799,-0.006,0.3815
255.9,-0.0055,0.3795
256,-0.0055,0.3765
256.1,-0.0055,0.3785
256.199,-0.006,0.381
256.299,-0.0055,0.379
256.4,-0.0055,0.379
256.5,-0.0055,0.379
256.6,-0.0055,0.379
256.7,-0.0055,0.3795
256.799,-0.005,0.3815
256.9,-0.0055,0.3795
257,-0.0055,0.38
257.101,-0.0055,0.3775
257.201,-0.0055,0.377
257.3,-0.0055,0.38
257.4,-0.0055,0.38
257.499,-0.006,0.382
257.6,-0.006,0.38
257.7,-0.006,0.38
257.8,-0.006,0.38
257.9,-0.006,0.38
258.001,-0.0055,0.3775
258.1,-0.006,0.38
258.2,-0.006,0.3805
258.3,-0.006,0.3805
258.4,-0.006,0.38
258.5,-0.006,0.38
258.6,-0.006,0.3805
258.701,-0.0055,0.3775
258.8,-0.006,0.3805
258.899,-0.006,0.383
259,-0.006,0.3805
259.099,-0.006,0.3835
259.2,-0.006,0.381
259.3,-0.006,0.3805
259.401,-0.006,0.381
259.5,-0.006,0.3805
259.6,-0.006,0.3805
259.7,-0.006,0.381
259.8,-0.006,0.381
259.901,-0.006,0.379
260.001,-0.006,0.379
260.1,-0.006,0.381
260.2,-0.006,0.381
260.3,-0.006,0.3815
260.4,-0.006,0.381
260.5,-0.006,0.381
260.6,-0.006,0.3805
260.7,-0.006,0.381
260.801,-0.006,0.379
260.901,-0.006,0.3795
261,-0.006,0.381
261.1,-0.006,0.381
261.2,-0.006,0.381
261.301,-0.006,0.3795
261.4,-0.006,0.381
261.5,-0.006,0.381
261.6,-0.006,0.381
261.7,-0.006,0.381
261.8,-0.006,0.381
261.9,-0.006,0.381
262,-0.0065,0.381
262.1,-0.0065,0.3795
262.201,-0.0065,0.38
262.3,-0.0065,0.381
262.4,-0.0065,0.3815
262.5,-0.006,0.3815
262.6,-0.0065,0.3815
262.7,-0.0065,0.382
262.8,-0.0065,0.382
262.9,-0.0065,0.382
263,-0.0065,0.3825
263.1,-0.0065,0.3825
263.201,-0.0065,0.382
263.3,-0.0065,0.3825
263.4,-0.0065,0.382
263.5,-0.0065,0.3825
263.599,-0.0065,0.3835
263.7,-0.0065,0.382
263.8,-0.0065,0.382
263.899,-0.0065,0.3835
264,-0.0065,0.382
264.101,-0.007,0.382
264.2,-0.0065,0.3825
264.3,-0.0065,0.3825
264.401,-0.007,0.3825
264.5,-0.0065,0.383
264.6,-0.0065,0.383
264.7,-0.007,0.3835
264.8,-0.007,0.3835
264.901,-0.007,0.3835
265,-0.007,0.384
265.1,-0.007,0.3845
265.2,-0.007,0.3845
265.3,-0.007,0.3845
265.4,-0.007,0.3845
265.5,-0.007,0.3855
265.6,-0.007,0.3855
265.7,-0.007,0.3855
265.8,-0.007,0.3855
265.9,-0.007,0.386
266.001,-0.0075,0.387
266.1,-0.007,0.3865
266.2,-0.007,0.3865
266.3,-0.007,0.387
266.4,-0.007,0.387
266.499,-0.007,0.387
266.6,-0.0075,0.3875
266.7,-0.007,0.388
266.8,-0.0075,0.388
266.9,-0.007,0.3885
267,-0.0075,0.3885
267.099,-0.007,0.3885
267.2,-0.0075,0.388
267.3,-0.009,0.39
267.4,-0.008,0.3885
267.5,-0.0095,0.393
267.6,-0.008,0.3895
267.699,-0.007,0.389
267.8,-0.008,0.3905
267.899,-0.0075,0.39
268,-0.008,0.391
268.1,-0.008,0.3915
268.201,-0.0095,0.393
268.3,-0.0085,0.392
268.4,-0.009,0.392
268.5,-0.009,0.392
268.6,-0.0085,0.3925
268.7,-0.009,0.394
268.8,-0.009,0.394
268.899,-0.0075,0.393
269,-0.009,0.3945
269.1,-0.0095,0.3945
269.2,-0.0095,0.395
269.299,-0.008,0.3935
269.4,-0.0095,0.3955
269.5,-0.0095,0.396
269.601,-0.0095,0.3985
269.7,-0.01,0.3965
269.801,-0.01,0.3995
269.9,-0.01,0.3975
270,-0.01,0.3975
270.1,-0.01,0.398
270.202,-0.0095,0.4035
270.3,-0.0105,0.399
270.4,-0.0105,0.3995
270.5,-0.0105,0.4
270.601,-0.01,0.4025
270.7,-0.0105,0.401
270.801,-0.01,0.4035
270.9,-0.0105,0.4015
271,-0.0105,0.402
271.101,-0.01,0.4045
271.2,-0.0105,0.403
271.299,-0.01,0.401
271.4,-0.01,0.404
271.5,-0.01,0.4045
271.6,-0.01,0.4075
271.7,-0.01,0.4055
271.799,-0.0105,0.404
271.9,-0.01,0.4065
272.001,-0.0095,0.4095
272.101,-0.0095,0.41
272.201,-0.0095,0.4105
272.3,-0.01,0.408
272.4,-0.01,0.4085
272.499,-0.0105,0.4065
272.599,-0.0105,0.4065
272.699,-0.0105,0.407
272.8,-0.01,0.41
272.9,-0.01,0.4105
273.001,-0.0095,0.414
273.1,-0.0095,0.4115
273.201,-0.0095,0.4145
273.301,-0.0095,0.415
273.4,-0.0095,0.413
273.5,-0.0095,0.413
273.601,-0.0095,0.416
273.701,-0.0095,0.4165
273.801,-0.0095,0.417
273.9,-0.01,0.4145
274,-0.0095,0.4155
274.1,-0.0095,0.4155
274.199,-0.01,0.4135
274.3,-0.0095,0.416
274.4,-0.0095,0.4165
274.5,-0.0095,0.417
274.6,-0.0095,0.4175
274.7,-0.01,0.418
274.8,-0.0095,0.4185
274.9,-0.0095,0.419
275,-0.0095,0.4195
275.1,-0.01,0.42
275.201,-0.009,0.422
275.301,-0.0095,0.4225
275.4,-0.0095,0.4215
275.501,-0.0095,0.4235
275.6,-0.0095,0.422
275.699,-0.01,0.421
275.8,-0.0095,0.4235
275.9,-0.0095,0.424
276,-0.0095,0.4245
276.101,-0.009,0.426
276.2,-0.0095,0.4255
276.3,-0.009,0.4255
276.4,-0.0095,0.426
276.5,-0.0095,0.426
276.6,-0.0095,0.4265
276.7,-0.0095,0.427
276.8,-0.0095,0.4275
276.901,-0.009,0.429
277,-0.009,0.4285
277.1,-0.009,0.429
277.2,-0.009,0.429
277.301,-0.009,0.43
277.401,-0.009,0.4305
277.5,-0.009,0.43
277.6,-0.009,0.4305
277.7,-0.009,0.432
277.801,-0.009,0.4325
277.9,-0.009,0.4325
278,-0.009,0.433
278.1,-0.009,0.433
278.2,-0.009,0.4335
278.301,-0.009,0.4335
278.4,-0.009,0.434
278.5,-0.009,0.434
278.6,-0.0085,0.434
278.7,-0.009,0.4345
278.8,-0.009,0.4345
278.9,-0.009,0.435
279,-0.009,0.435
279.099,-0.009,0.4355
279.199,-0.009,0.436
279.3,-0.009,0.436
279.4,-0.0085,0.436
279.5,-0.0085,0.4365
279.6,-0.0085,0.4365
279.7,-0.009,0.4365
279.799,-0.009,0.438
279.899,-0.009,0.438
280,-0.0085,0.4375
280.1,-0.0085,0.4365
280.2,-0.0085,0.4365
280.3,-0.0085,0.437
280.4,-0.0085,0.438
280.501,-0.008,0.436
280.601,-0.008,0.436
280.7,-0.0085,0.438
280.8,-0.0085,0.4375
280.9,-0.0085,0.4375
281,-0.0085,0.437
281.1,-0.0085,0.4365
281.201,-0.0075,0.4345
281.301,-0.007,0.4345
281.401,-0.007,0.4345
281.5,-0.008,0.437
281.599,-0.0085,0.439
281.7,-0.0085,0.437
281.8,-0.008,0.437
281.901,-0.008,0.4345
282.001,-0.008,0.4345
282.1,-0.0075,0.437
282.2,-0.0085,0.4375
282.301,-0.008,0.435
282.4,-0.008,0.437
282.5,-0.0085,0.4375
282.601,-0.008,0.4345
282.7,-0.008,0.4375
282.8,-0.008,0.4375
282.9,-0.008,0.4375
282.999,-0.008,0.4375
283.1,-0.008,0.437
283.199,-0.008,0.437
283.3,-0.008,0.437
283.4,-0.008,0.437
283.5,-0.008,0.4375
283.601,-0.008,0.4345
283.701,-0.008,0.4345
283.8,-0.008,0.4375
283.901,-0.008,0.435
284,-0.008,0.4375
284.099,-0.008,0.44
284.2,-0.0085,0.4375
284.3,-0.008,0.437
284.399,-0.008,0.44
284.5,-0.008,0.437
284.6,-0.008,0.437
284.701,-0.008,0.435
284.8,-0.008,0.437
284.9,-0.008,0.437
285,-0.008,0.437
285.1,-0.008,0.437
285.201,-0.008,0.435
285.3,-0.008,0.437
285.401,-0.008,0.435
285.501,-0.008,0.4355
285.601,-0.008,0.4355
285.7,-0.008,0.4375
285.8,-0.008,0.4375
285.9,-0.008,0.4375
286.001,-0.0085,0.436
286.101,-0.0085,0.436
286.2,-0.0085,0.438
286.3,-0.008,0.438
286.4,-0.0085,0.438
286.501,-0.0085,0.4365
286.6,-0.0085,0.438
286.7,-0.008,0.438
286.799,-0.0085,0.44
286.901,-0.0085,0.437
287.001,-0.0085,0.4375
287.1,-0.0085,0.439
287.201,-0.0085,0.438
287.3,-0.0085,0.4395
287.401,-0.0085,0.4385
287.5,-0.0085,0.4395
287.601,-0.0085,0.4385
287.7,-0.0085,0.44
287.8,-0.0085,0.44
287.9,-0.0085,0.44
288,-0.0085,0.44
288.1,-0.0085,0.4405
288.2,-0.009,0.4405
288.3,-0.0085,0.441
288.4,-0.0085,0.441
288.499,-0.0085,0.442
288.601,-0.009,0.441
288.7,-0.0095,0.442
288.799,-0.0085,0.4425
288.9,-0.009,0.4415
289,-0.009,0.4405
289.1,-0.009,0.439
289.201,-0.009,0.4395
289.3,-0.009,0.4395
289.4,-0.009,0.4395
289.501,-0.009,0.4405
289.6,-0.009,0.4405
289.699,-0.009,0.441
289.8,-0.009,0.441
289.9,-0.009,0.4415
290,-0.009,0.4415
290.1,-0.01,0.4425
290.2,-0.009,0.4415
290.301,-0.01,0.4425
290.4,-0.009,0.441
290.5,-0.009,0.4415
290.601,-0.0105,0.4425
290.7,-0.0095,0.4415
290.8,-0.0095,0.442
290.901,-0.011,0.444
291,-0.0095,0.4425
291.1,-0.0095,0.4425
291.199,-0.009,0.442
291.299,-0.0095,0.445
291.4,-0.01,0.4435
291.501,-0.0115,0.445
291.601,-0.0115,0.4455
291.7,-0.0105,0.444
291.8,-0.011,0.4445
291.9,-0.011,0.4445
292,-0.011,0.445
292.1,-0.011,0.4455
292.201,-0.012,0.4485
292.3,-0.0115,0.446
292.4,-0.0115,0.4465
292.499,-0.01,0.445
292.6,-0.0115,0.447
292.7,-0.0115,0.4475
292.801,-0.012,0.45
292.9,-0.012,0.448
293,-0.012,0.449
293.101,-0.0115,0.4515
293.2,-0.012,0.4495
293.3,-0.012,0.455
293.4,-0.012,0.4505
293.5,-0.012,0.451
293.6,-0.0125,0.451
293.7,-0.012,0.4515
293.8,-0.012,0.452
293.9,-0.012,0.4525
294.001,-0.012,0.455
294.101,-0.0115,0.456
294.2,-0.012,0.4535
294.3,-0.012,0.454
294.401,-0.0115,0.4575
294.501,-0.0115,0.458
294.6,-0.012,0.4555
294.7,-0.012,0.4555
294.8,-0.0115,0.4565
294.901,-0.0115,0.4595
295,-0.012,0.457
295.101,-0.0115,0.4605
295.2,-0.012,0.458
295.3,-0.0115,0.4585
295.399,-0.012,0.4565
295.5,-0.0115,0.4595
295.6,-0.011,0.4595
295.7,-0.0115,0.4605
295.799,-0.0115,0.461
295.899,-0.0115,0.461
295.999,-0.012,0.459
296.099,-0.012,0.459
296.2,-0.0115,0.463
296.3,-0.011,0.463
296.401,-0.011,0.4655
296.5,-0.0115,0.4635
296.601,-0.011,0.466
296.701,-0.011,0.4665
296.8,-0.0115,0.465
296.901,-0.011,0.4675
297,-0.0115,0.4655
297.101,-0.011,0.468
297.201,-0.011,0.468
297.3,-0.011,0.467
297.4,-0.0115,0.467
297.5,-0.011,0.4675
297.601,-0.0105,0.4695
297.701,-0.011,0.47
297.8,-0.011,0.4685
297.9,-0.011,0.469
298,-0.011,0.4695
298.1,-0.011,0.47
298.201,-0.0105,0.4715
298.3,-0.011,0.4705
298.4,-0.011,0.471
298.499,-0.011,0.469
298.6,-0.011,0.471
298.7,-0.011,0.4715
298.801,-0.0105,0.473
298.901,-0.0105,0.4735
299.001,-0.0105,0.474
299.1,-0.011,0.4735
299.201,-0.0105,0.4745
299.3,-0.0105,0.474
299.4,-0.0105,0.474
299.499,-0.011,0.473
299.599,-0.011,0.4735
299.7,-0.0105,0.475
299.8,-0.0105,0.475
299.9,-0.0105,0.4755
300,-0.011,0.4755
300.1,-0.0105,0.476
300.2,-0.0105,0.476
300.3,-0.0105,0.476
300.4,-0.0105,0.4765
300.5,-0.0105,0.4765
300.601,-0.0105,0.476
300.7,-0.0105,0.477
300.801,-0.01,0.4765
300.901,-0.01,0.476
301.001,-0.01,0.4765
301.1,-0.0105,0.4775
301.2,-0.0105,0.4775
301.3,-0.0105,0.4775
301.399,-0.0105,0.4785
301.5,-0.0105,0.478
301.601,-0.01,0.476
301.7,-0.0105,0.478
301.8,-0.01,0.478
301.9,-0.01,0.4785
301.999,-0.0105,0.4795
302.1,-0.0105,0.478
302.201,-0.01,0.477
302.301,-0.0095,0.477
302.401,-0.0095,0.477
302.5,-0.01,0.4785
302.6,-0.01,0.479
302.701,-0.0095,0.4765
302.8,-0.01,0.479
302.899,-0.0105,0.4765
303,-0.01,0.479
303.1,-0.01,0.479
303.199,-0.01,0.4795
303.299,-0.01,0.4795
303.4,-0.0095,0.4795
303.501,-0.0095,0.477
303.6,-0.0095,0.4765
303.7,-0.01,0.479
303.8,-0.0095,0.4765
303.9,-0.0105,0.479
304,-0.009,0.479
304.099,-0.01,0.4815
304.2,-0.0105,0.479
304.3,-0.009,0.479
304.4,-0.009,0.4795
304.501,-0.0095,0.4765
304.601,-0.0095,0.4765
304.7,-0.0095,0.479
304.8,-0.0095,0.479
304.9,-0.0095,0.479
305,-0.0095,0.4785
305.1,-0.0095,0.4785
305.201,-0.0095,0.4755
305.3,-0.0095,0.4785
305.399,-0.0095,0.481
305.499,-0.0095,0.4785
305.6,-0.0095,0.4785
305.701,-0.0095,0.4755
305.8,-0.0095,0.478
305.901,-0.0095,0.4755
306,-0.0095,0.478
306.1,-0.0095,0.478
306.2,-0.0095,0.478
306.301,-0.0095,0.4755
306.4,-0.0095,0.478
306.5,-0.0095,0.478
306.601,-0.0095,0.476
306.701,-0.0095,0.4755
306.8,-0.0095,0.478
306.9,-0.0095,0.478
307,-0.0095,0.478
307.1,-0.0095,0.478
307.201,-0.0095,0.4765
307.301,-0.01,0.4765
307.4,-0.0095,0.4785
307.5,-0.0095,0.478
307.601,-0.01,0.477
307.701,-0.01,0.477
307.8,-0.0095,0.4785
307.9,-0.0095,0.4785
307.999,-0.0095,0.48
308.1,-0.0095,0.4785
308.2,-0.0095,0.479
308.3,-0.01,0.479
308.4,-0.01,0.479
308.5,-0.0095,0.479
308.6,-0.0095,0.4795
308.7,-0.01,0.4795
308.8,-0.01,0.4795
308.9,-0.01,0.48
309,-0.01,0.4795
309.1,-0.01,0.479
309.2,-0.01,0.479
309.3,-0.01,0.479
309.401,-0.01,0.4805
309.5,-0.01,0.479
309.6,-0.01,0.479
309.7,-0.01,0.479
309.8,-0.01,0.479
309.9,-0.01,0.4795
310,-0.01,0.4795
310.1,-0.01,0.4795
310.201,-0.0105,0.48
310.3,-0.01,0.4805
310.4,-0.01,0.48
310.501,-0.011,0.481
310.6,-0.011,0.4815
310.7,-0.0105,0.482
310.8,-0.0105,0.481
310.9,-0.0105,0.4815
311,-0.0105,0.482
311.1,-0.0105,0.482
311.2,-0.0105,0.482
311.3,-0.011,0.482
311.401,-0.012,0.484
311.501,-0.0125,0.4845
311.601,-0.0125,0.485
311.7,-0.0115,0.4835
311.801,-0.0125,0.4855
311.901,-0.013,0.486
312.001,-0.013,0.486
312.1,-0.0115,0.4845
312.2,-0.012,0.485
312.3,-0.0125,0.485
312.4,-0.012,0.4855
312.501,-0.013,0.4885
312.6,-0.0125,0.4865
312.7,-0.0125,0.487
312.801,-0.013,0.4895
312.9,-0.013,0.4875
313,-0.013,0.488
313.1,-0.013,0.4885
313.2,-0.013,0.489
313.3,-0.0135,0.4895
313.4,-0.013,0.4925
313.501,-0.013,0.493
313.6,-0.0135,0.491
313.701,-0.013,0.4935
313.8,-0.013,0.4915
313.9,-0.013,0.4945
314,-0.013,0.4925
314.1,-0.013,0.493
314.2,-0.013,0.4935
314.3,-0.013,0.494
314.399,-0.0135,0.492
314.5,-0.013,0.5005
314.601,-0.0125,0.4985
314.701,-0.0125,0.499
314.801,-0.0125,0.4995
314.9,-0.013,0.497
315,-0.0125,0.4975
315.101,-0.0125,0.501
315.2,-0.0125,0.499
315.301,-0.0125,0.502
315.4,-0.0125,0.5
315.501,-0.0125,0.503
315.601,-0.0125,0.5035
315.701,-0.0125,0.504
315.801,-0.0125,0.504
315.9,-0.0125,0.5025
316,-0.012,0.505
316.1,-0.0125,0.503
316.2,-0.0125,0.5035
316.301,-0.012,0.506
316.4,-0.0125,0.5045
316.5,-0.0125,0.505
316.6,-0.0125,0.5055
316.7,-0.0125,0.506
316.8,-0.0125,0.506
316.9,-0.0125,0.5065
317,-0.0125,0.507
317.101,-0.012,0.509
317.2,-0.0125,0.508
317.3,-0.012,0.508
317.4,-0.012,0.5085
317.5,-0.012,0.509
317.6,-0.012,0.509
317.7,-0.0115,0.511
317.8,-0.012,0.51
317.9,-0.012,0.5105
318,-0.012,0.511
318.1,-0.0115,0.5115
318.2,-0.0115,0.512
318.3,-0.0115,0.5115
318.4,-0.0115,0.512
318.499,-0.012,0.511
318.6,-0.012,0.513
318.7,-0.0115,0.513
318.8,-0.0115,0.5135
318.9,-0.0115,0.5135
319,-0.0115,0.514
319.1,-0.0115,0.514
319.2,-0.0115,0.5145
319.3,-0.0115,0.5145
319.399,-0.012,0.5145
319.5,-0.011,0.514
319.601,-0.011,0.514
319.7,-0.0115,0.515
319.801,-0.011,0.5145
319.9,-0.0115,0.5155
320,-0.0115,0.5155
320.1,-0.011,0.515
320.2,-0.0115,0.5155
320.3,-0.0115,0.5155
320.4,-0.0115,0.5155
320.5,-0.011,0.516
320.6,-0.0095,0.511
320.701,-0.0105,0.5135
320.801,-0.0105,0.5135
320.901,-0.0105,0.5135
321,-0.011,0.515
321.101,-0.0105,0.513
321.2,-0.011,0.515
321.301,-0.0105,0.5125
321.4,-0.0105,0.5105
321.501,-0.01,0.512
321.6,-0.0105,0.5145
321.7,-0.011,0.5145
321.8,-0.011,0.514
321.901,-0.0105,0.511
322,-0.0105,0.513
322.1,-0.0105,0.512
322.2,-0.0105,0.508
322.3,-0.01,0.5125
322.4,-0.0115,0.5135
322.499,-0.011,0.516
322.6,-0.011,0.5135
322.7,-0.01,0.5135
322.801,-0.0105,0.511
322.9,-0.0105,0.5135
323,-0.0105,0.5135
323.099,-0.0105,0.513
323.2,-0.0105,0.513
323.3,-0.0105,0.513
323.4,-0.0105,0.513
323.5,-0.0105,0.513
323.6,-0.0105,0.5125
323.7,-0.0105,0.5125
323.799,-0.0105,0.515
323.9,-0.0105,0.512
323.999,-0.0105,0.515
324.1,-0.0105,0.512
324.201,-0.0105,0.5095
324.3,-0.0105,0.5115
324.399,-0.0105,0.515
324.5,-0.0105,0.512
324.599,-0.0105,0.5115
324.7,-0.0105,0.512
324.801,-0.0105,0.51
324.9,-0.0105,0.5115
325,-0.0105,0.5115
325.1,-0.0105,0.5115
325.2,-0.0105,0.5115
325.3,-0.0105,0.511
325.4,-0.0105,0.511
325.5,-0.0105,0.511
325.6,-0.0105,0.511
325.7,-0.0105,0.5105
325.8,-0.0105,0.511
325.9,-0.0105,0.5105
326,-0.0105,0.5105
326.101,-0.011,0.5095
326.2,-0.011,0.5105
326.3,-0.011,0.511
326.401,-0.011,0.5095
326.5,-0.0105,0.511
326.6,-0.0105,0.511
326.7,-0.011,0.511
326.8,-0.011,0.511
326.899,-0.0105,0.5125
327,-0.011,0.511
327.1,-0.011,0.511
327.2,-0.011,0.511
327.301,-0.011,0.511
327.401,-0.011,0.511
327.5,-0.011,0.5115
327.6,-0.011,0.5115
327.7,-0.011,0.5115
327.8,-0.011,0.512
327.899,-0.011,0.5125
328,-0.011,0.512
328.1,-0.011,0.512
328.2,-0.011,0.5125
328.3,-0.011,0.5125
328.4,-0.011,0.5125
328.5,-0.011,0.5125
328.6,-0.0115,0.513
328.701,-0.012,0.514
328.8,-0.0115,0.5135
328.899,-0.011,0.5135
328.999,-0.011,0.514
329.1,-0.0125,0.516
329.2,-0.0115,0.516
329.3,-0.0115,0.515
329.4,-0.0115,0.515
329.5,-0.0115,0.5155
329.6,-0.012,0.5155
329.699,-0.0115,0.515
329.8,-0.012,0.5165
329.9,-0.012,0.5165
330,-0.0125,0.517
330.1,-0.0135,0.519
330.199,-0.0115,0.5165
330.3,-0.013,0.5185
330.401,-0.014,0.5205
330.5,-0.013,0.519
330.6,-0.0135,0.519
330.7,-0.0135,0.5195
330.8,-0.0135,0.52
330.9,-0.0135,0.52
330.999,-0.0125,0.519
331.099,-0.0125,0.519
331.199,-0.013,0.5195
331.3,-0.014,0.522
331.4,-0.014,0.523
331.5,-0.014,0.523
331.6,-0.014,0.5235
331.7,-0.014,0.5235
331.801,-0.0135,0.527
331.9,-0.014,0.525
331.999,-0.014,0.5255
332.1,-0.014,0.5255
332.2,-0.014,0.5255
332.301,-0.0135,0.529
332.401,-0.0135,0.5295
332.501,-0.0135,0.53
332.6,-0.014,0.5275
332.7,-0.014,0.531
332.8,-0.014,0.5285
332.901,-0.0135,0.532
333.001,-0.0135,0.5325
333.1,-0.0135,0.53
333.2,-0.0135,0.53
333.3,-0.0135,0.5305
333.4,-0.0135,0.531
333.5,-0.0135,0.5315
333.6,-0.0135,0.5365
333.7,-0.0135,0.5325
333.8,-0.0135,0.533
333.899,-0.014,0.53
334,-0.0135,0.5335
334.1,-0.013,0.534
334.2,-0.013,0.534
334.299,-0.0135,0.5315
334.399,-0.0135,0.532
334.5,-0.0135,0.5355
334.6,-0.0135,0.536
334.7,-0.0135,0.536
334.8,-0.0135,0.5365
334.9,-0.0135,0.5365
334.999,-0.0135,0.535
335.1,-0.013,0.529
335.2,-0.013,0.5295
335.299,-0.0135,0.5285
335.4,-0.013,0.531
335.5,-0.013,0.5315
335.6,-0.013,0.5325
335.7,-0.013,0.5325
335.799,-0.013,0.531
335.899,-0.0135,0.5315
335.999,-0.013,0.5315
336.1,-0.013,0.534
336.2,-0.0125,0.534
336.3,-0.0125,0.5345
336.399,-0.0125,0.535
336.5,-0.0125,0.535
336.6,-0.0125,0.5355
336.7,-0.0125,0.5355
336.8,-0.0125,0.535
336.9,-0.0125,0.536
337,-0.0125,0.5365
337.099,-0.013,0.536
337.2,-0.0125,0.5365
337.3,-0.0125,0.537
337.401,-0.012,0.534
337.5,-0.0125,0.535
337.6,-0.0125,0.535
337.7,-0.0125,0.535
337.801,-0.012,0.534
337.901,-0.012,0.534
338,-0.0125,0.5355
338.1,-0.0125,0.5355
338.201,-0.012,0.5345
338.3,-0.012,0.5355
338.4,-0.0125,0.536
338.5,-0.012,0.536
338.6,-0.012,0.536
338.701,-0.0115,0.534
338.8,-0.012,0.536
338.9,-0.012,0.5345
339.001,-0.0115,0.534
339.101,-0.0115,0.5315
339.201,-0.0115,0.5335
339.301,-0.0115,0.5335
339.4,-0.012,0.542
339.5,-0.012,0.5435
339.599,-0.012,0.544
339.7,-0.012,0.544
339.8,-0.012,0.5445
339.9,-0.0115,0.5445
339.999,-0.012,0.545
340.1,-0.0115,0.5445
340.199,-0.012,0.5455
340.3,-0.0115,0.54
340.4,-0.0115,0.545
340.5,-0.0115,0.545
340.599,-0.0115,0.5465
340.7,-0.0115,0.5445
340.8,-0.0115,0.5445
340.899,-0.012,0.5475
340.999,-0.0115,0.547
341.1,-0.011,0.545
341.201,-0.0115,0.543
341.3,-0.012,0.5455
341.4,-0.0105,0.5455
341.501,-0.011,0.5425
341.601,-0.011,0.5425
341.701,-0.0115,0.5425
341.8,-0.011,0.545
341.899,-0.0115,0.547
342.001,-0.0115,0.542
342.101,-0.0115,0.542
342.2,-0.0115,0.545
342.301,-0.0115,0.542
342.4,-0.011,0.5445
342.5,-0.0115,0.5445
342.6,-0.0115,0.5445
342.699,-0.011,0.547
342.8,-0.0115,0.544
342.9,-0.011,0.5395
343.001,-0.0115,0.5415
343.1,-0.0115,0.544
343.201,-0.0115,0.5415
343.301,-0.011,0.5415
343.4,-0.0115,0.544
343.5,-0.0115,0.5435
343.599,-0.0115,0.5465
343.699,-0.0115,0.5435
343.8,-0.0115,0.5435
343.9,-0.0115,0.5435
343.999,-0.0115,0.546
344.1,-0.0115,0.543
344.199,-0.0115,0.5455
344.3,-0.0115,0.543
344.4,-0.0115,0.543
344.5,-0.0115,0.5425
344.601,-0.0115,0.541
344.7,-0.0115,0.5425
344.799,-0.0115,0.5445
344.9,-0.0115,0.5425
345.001,-0.0115,0.541
345.1,-0.0115,0.5425
345.201,-0.0115,0.541
345.3,-0.0115,0.542
345.401,-0.0115,0.541
345.5,-0.0115,0.541
345.6,-0.0115,0.5425
345.7,-0.0115,0.5425
345.799,-0.0115,0.5445
345.899,-0.0115,0.544
346,-0.0115,0.5425
346.1,-0.0115,0.543
346.2,-0.0115,0.543
346.3,-0.0115,0.5435
346.4,-0.0115,0.5435
346.499,-0.0115,0.544
346.6,-0.0115,0.5435
346.701,-0.012,0.543
346.8,-0.012,0.5435
346.9,-0.0115,0.5445
347,-0.0115,0.5445
347.1,-0.0115,0.5445
347.2,-0.012,0.5445
347.299,-0.0115,0.5435
347.4,-0.012,0.5425
347.5,-0.012,0.542
347.599,-0.0115,0.544
347.7,-0.012,0.543
347.799,-0.0115,0.544
347.9,-0.012,0.5435
348,-0.012,0.5435
348.1,-0.012,0.5435
348.2,-0.012,0.543
348.299,-0.012,0.5435
348.4,-0.012,0.5435
348.499,-0.0115,0.5435
348.6,-0.012,0.543
348.7,-0.012,0.5435
348.8,-0.012,0.543
348.9,-0.012,0.543
349,-0.012,0.543
349.1,-0.012,0.543
349.2,-0.012,0.543
349.3,-0.012,0.543
349.4,-0.012,0.5415
349.5,-0.012,0.5415
349.601,-0.013,0.5425
349.7,-0.0125,0.541
349.8,-0.0125,0.541
349.901,-0.0135,0.5425
350,-0.0125,0.5415
350.1,-0.0125,0.5415
350.201,-0.014,0.543
350.3,-0.0125,0.5415
350.4,-0.013,0.542
350.499,-0.0125,0.541
350.6,-0.013,0.5425
350.7,-0.0135,0.5425
350.8,-0.0145,0.5445
350.9,-0.0135,0.543
351.001,-0.0145,0.5455
351.101,-0.015,0.546
351.201,-0.0145,0.546
351.301,-0.015,0.5465
351.4,-0.014,0.5445
351.501,-0.015,0.547
351.6,-0.014,0.545
351.7,-0.0145,0.5445
351.8,-0.0145,0.5445
351.9,-0.0145,0.5445
352,-0.0145,0.545
352.1,-0.0145,0.5455
352.2,-0.0145,0.546
352.3,-0.0145,0.5465
352.4,-0.015,0.547
352.5,-0.015,0.5475
352.6,-0.015,0.548
352.699,-0.014,0.546
352.8,-0.015,0.5485
352.899,-0.0145,0.5465
353,-0.015,0.549
353.101,-0.0145,0.552
353.201,-0.0145,0.5525
353.301,-0.0145,0.5525
353.4,-0.015,0.55
353.5,-0.0145,0.5505
353.6,-0.015,0.551
353.7,-0.0145,0.551
353.799,-0.015,0.5495
353.9,-0.0145,0.552
354,-0.0145,0.5525
354.101,-0.014,0.5555
354.201,-0.0145,0.5555
354.3,-0.0145,0.552
354.4,-0.0145,0.5525
354.5,-0.0145,0.5525
354.6,-0.0145,0.553
354.7,-0.0145,0.5535
354.8,-0.0145,0.554
354.901,-0.014,0.557
355,-0.014,0.5545
355.1,-0.014,0.555
355.201,-0.014,0.5575
355.301,-0.014,0.558
355.4,-0.014,0.5555
355.5,-0.0145,0.556
355.6,-0.0145,0.5565
355.7,-0.0145,0.5565
355.801,-0.014,0.559
355.9,-0.014,0.557
356,-0.014,0.557
356.1,-0.014,0.5575
356.2,-0.014,0.558
356.3,-0.014,0.558
356.4,-0.014,0.5585
356.5,-0.014,0.559
356.6,-0.014,0.5595
356.7,-0.014,0.5595
356.8,-0.014,0.56
356.901,-0.0135,0.5625
357,-0.014,0.561
357.1,-0.014,0.561
357.2,-0.014,0.5615
357.301,-0.014,0.5635
357.399,-0.014,0.56
357.5,-0.014,0.5625
357.6,-0.014,0.5625
357.7,-0.014,0.5625
357.801,-0.0135,0.564
357.901,-0.0135,0.564
358.001,-0.0135,0.5645
358.101,-0.0135,0.5645
358.2,-0.014,0.5635
358.3,-0.014,0.5635
358.399,-0.014,0.5615
358.5,-0.0135,0.563
358.599,-0.014,0.5615
358.699,-0.014,0.5635
358.8,-0.014,0.5635
358.9,-0.0135,0.5645
359,-0.0135,0.564
359.1,-0.0135,0.564
359.199,-0.014,0.562
359.3,-0.0135,0.564
359.4,-0.0135,0.564
359.5,-0.0135,0.564
359.601,-0.0135,0.5645
359.701,-0.0135,0.565
359.8,-0.0135,0.564
359.9,-0.0135,0.5645
359.999,-0.014,0.563
360.1,-0.0135,0.565
360.201,-0.013,0.565
360.3,-0.0135,0.565
360.399,-0.014,0.5645
360.5,-0.0135,0.5655
360.6,-0.0135,0.5655
360.7,-0.0135,0.565
360.799,-0.0135,0.564
360.9,-0.0135,0.5645
361,-0.0135,0.5645
361.099,-0.0135,0.564
361.199,-0.0135,0.5635
361.299,-0.0135,0.5635
361.399,-0.0135,0.5635
361.5,-0.0135,0.5635
361.6,-0.013,0.564
361.699,-0.0135,0.564
361.8,-0.0135,0.5655
361.9,-0.013,0.5665
362,-0.013,0.567
362.101,-0.0125,0.5665
362.2,-0.013,0.566
362.3,-0.013,0.567
362.4,-0.013,0.567
362.5,-0.013,0.5675
362.6,-0.013,0.567
362.7,-0.013,0.567
362.8,-0.013,0.567
362.901,-0.0125,0.563
363,-0.013,0.5675
363.1,-0.013,0.567
363.2,-0.013,0.5665
363.3,-0.013,0.5675
363.4,-0.013,0.5655
363.501,-0.0125,0.5645
363.6,-0.013,0.564
363.701,-0.0125,0.564
363.8,-0.013,0.5645
363.9,-0.013,0.566
364,-0.013,0.5655
364.1,-0.013,0.5655
364.199,-0.013,0.567
364.3,-0.012,0.561
364.399,-0.013,0.567
364.5,-0.0125,0.565
364.6,-0.0125,0.5645
364.7,-0.012,0.56
364.799,-0.013,0.5675
364.899,-0.0125,0.5645
365,-0.0125,0.5645
365.1,-0.0125,0.5645
365.2,-0.0125,0.5645
365.3,-0.0125,0.5645
365.4,-0.0125,0.5645
365.5,-0.0125,0.5645
365.6,-0.0125,0.5645
365.7,-0.0125,0.564
365.8,-0.0125,0.564
365.901,-0.012,0.5615
366,-0.0125,0.563
366.1,-0.0125,0.563
366.201,-0.0125,0.5605
366.301,-0.0125,0.56
366.401,-0.0125,0.56
366.5,-0.0115,0.562
366.601,-0.012,0.5595
366.699,-0.0125,0.564
366.8,-0.013,0.5615
366.9,-0.012,0.559
366.999,-0.013,0.5615
367.1,-0.012,0.561
367.2,-0.012,0.561
367.299,-0.0125,0.563
367.399,-0.0125,0.563
367.499,-0.0125,0.5625
367.6,-0.012,0.56
367.7,-0.012,0.56
367.801,-0.0125,0.5575
367.9,-0.012,0.56
368,-0.0125,0.5595
368.1,-0.0125,0.5595
368.201,-0.0125,0.5565
368.3,-0.0125,0.559
368.4,-0.0125,0.559
368.499,-0.0115,0.561
368.6,-0.0125,0.5555
368.7,-0.0125,0.558
368.801,-0.0125,0.5515
368.9,-0.012,0.558
369,-0.012,0.5575
369.101,-0.0125,0.5545
369.2,-0.0125,0.557
369.3,-0.0125,0.5565
369.4,-0.0125,0.556
369.5,-0.0125,0.5555
369.601,-0.0125,0.553
369.7,-0.0125,0.5555
369.8,-0.0125,0.555
369.899,-0.0125,0.5575
370,-0.0125,0.5545
370.1,-0.0125,0.5545
370.2,-0.0125,0.554
370.3,-0.012,0.5515
370.4,-0.0125,0.5535
370.5,-0.0125,0.5535
370.601,-0.012,0.5515
370.7,-0.0125,0.553
370.801,-0.012,0.551
370.9,-0.0125,0.553
371.001,-0.012,0.551
371.1,-0.0125,0.553
371.199,-0.0125,0.5555
371.299,-0.0125,0.555
371.4,-0.0125,0.5525
371.5,-0.0125,0.552
371.6,-0.012,0.552
371.7,-0.012,0.5515
371.8,-0.0125,0.5515
371.9,-0.0125,0.551
372,-0.0125,0.551
372.099,-0.012,0.5505
372.2,-0.0125,0.5505
372.3,-0.0125,0.5505
372.4,-0.0125,0.55
372.5,-0.012,0.55
372.601,-0.0125,0.548
372.7,-0.012,0.5495
372.801,-0.0125,0.548
372.9,-0.012,0.5495
373,-0.0125,0.549
373.1,-0.0125,0.5495
373.2,-0.0125,0.549
373.3,-0.0125,0.549
373.4,-0.0125,0.549
373.5,-0.0125,0.549
373.6,-0.0125,0.5475
373.7,-0.0125,0.5485
373.8,-0.0125,0.5485
373.899,-0.0125,0.55
374,-0.0125,0.548
374.1,-0.0125,0.548
374.201,-0.013,0.5465
374.301,-0.0125,0.546
374.4,-0.0125,0.547
374.499,-0.0125,0.5485
374.599,-0.0125,0.547
374.7,-0.0125,0.547
374.8,-0.0125,0.547
374.9,-0.0125,0.547
375.001,-0.013,0.546
375.1,-0.0125,0.546
375.201,-0.013,0.545
375.3,-0.013,0.545
375.401,-0.013,0.545
375.5,-0.0125,0.545
375.6,-0.0125,0.545
375.7,-0.0125,0.545
375.8,-0.0125,0.5445
375.901,-0.013,0.544
376,-0.013,0.5445
376.1,-0.0125,0.544
376.2,-0.013,0.544
376.3,-0.013,0.544
376.4,-0.0125,0.5435
376.5,-0.013,0.5435
376.6,-0.013,0.543
376.7,-0.013,0.543
376.8,-0.013,0.543
376.9,-0.013,0.543
376.999,-0.013,0.543
377.1,-0.013,0.543
377.2,-0.013,0.543
377.3,-0.013,0.543
377.4,-0.013,0.543
377.5,-0.013,0.5425
377.6,-0.013,0.5425
377.7,-0.013,0.5425
377.801,-0.0135,0.5425
377.901,-0.013,0.542
378.001,-0.0135,0.542
378.1,-0.013,0.541
378.2,-0.013,0.541
378.3,-0.013,0.5405
378.4,-0.013,0.54
378.5,-0.013,0.54
378.6,-0.013,0.5395
378.7,-0.013,0.539
378.8,-0.0135,0.539
378.901,-0.014,0.5395
379.001,-0.014,0.5395
379.1,-0.013,0.5385
379.201,-0.014,0.539
379.3,-0.0135,0.5375
379.4,-0.0135,0.537
379.5,-0.0135,0.5365
379.599,-0.013,0.535
379.7,-0.0135,0.535
379.799,-0.013,0.5345
379.9,-0.0135,0.534
380,-0.0135,0.534
380.1,-0.0135,0.534
380.2,-0.014,0.5335
380.3,-0.014,0.5335
380.4,-0.014,0.5335
380.499,-0.013,0.533
380.6,-0.014,0.534
380.7,-0.0145,0.534
380.799,-0.0135,0.533
380.899,-0.0145,0.534
381,-0.0145,0.5335
381.101,-0.0155,0.5355
381.201,-0.016,0.5355
381.3,-0.0145,0.533
381.4,-0.015,0.533
381.5,-0.015,0.5325
381.6,-0.015,0.5325
381.699,-0.014,0.531
381.8,-0.016,0.536
381.9,-0.0155,0.5315
382,-0.015,0.5315
382.1,-0.0155,0.531
382.2,-0.0155,0.531
382.3,-0.0155,0.5305
382.401,-0.016,0.5325
382.5,-0.0155,0.5305
382.601,-0.016,0.5325
382.701,-0.016,0.533
382.8,-0.0155,0.531
382.9,-0.0155,0.5315
383,-0.016,0.5315
383.099,-0.0145,0.5295
383.2,-0.016,0.5315
383.3,-0.016,0.5315
383.401,-0.0155,0.533
383.501,-0.016,0.533
383.6,-0.016,0.531
383.7,-0.016,0.531
383.8,-0.016,0.531
383.9,-0.016,0.531
384.001,-0.0155,0.5335
384.1,-0.016,0.531
384.201,-0.0155,0.533
384.3,-0.016,0.5335
384.4,-0.016,0.5305
384.5,-0.016,0.5305
384.599,-0.016,0.5295
384.7,-0.016,0.529
384.801,-0.0155,0.531
384.9,-0.016,0.528
385.001,-0.0155,0.53
385.1,-0.016,0.5275
385.201,-0.0155,0.5295
385.3,-0.016,0.5275
385.4,-0.016,0.528
385.5,-0.016,0.528
385.6,-0.0155,0.528
385.7,-0.016,0.528
385.8,-0.016,0.528
385.9,-0.016,0.5275
386,-0.0155,0.527
386.1,-0.016,0.527
386.199,-0.016,0.5245
386.3,-0.016,0.5265
386.401,-0.0155,0.5285
386.5,-0.016,0.526
386.599,-0.016,0.523
386.7,-0.016,0.525
386.8,-0.0155,0.525
386.9,-0.0155,0.525
387.001,-0.015,0.5275
387.1,-0.0155,0.5245
387.2,-0.0155,0.5245
387.3,-0.0155,0.5245
387.399,-0.016,0.5215
387.5,-0.0155,0.524
387.6,-0.0155,0.5235
387.7,-0.0155,0.5235
387.801,-0.015,0.526
387.9,-0.015,0.526
388,-0.0155,0.523
388.1,-0.015,0.523
388.2,-0.0155,0.523
388.299,-0.016,0.5205
388.4,-0.015,0.523
388.5,-0.0155,0.523
388.599,-0.016,0.5205
388.7,-0.0155,0.523
388.8,-0.0155,0.523
388.9,-0.0155,0.523
389,-0.0155,0.523
389.1,-0.0155,0.523
389.2,-0.0155,0.5225
389.301,-0.015,0.525
389.4,-0.0155,0.523
389.501,-0.015,0.525
389.6,-0.0155,0.523
389.699,-0.016,0.52
389.799,-0.016,0.52
389.899,-0.0155,0.52
390,-0.015,0.525
390.1,-0.015,0.523
390.199,-0.015,0.523
390.3,-0.015,0.523
390.4,-0.015,0.523
390.5,-0.015,0.5235
390.601,-0.015,0.5255
390.7,-0.0155,0.5235
390.801,-0.015,0.5255
390.901,-0.015,0.5255
391,-0.0155,0.5235
391.1,-0.0155,0.5235
391.201,-0.015,0.5245
391.301,-0.015,0.5245
391.4,-0.015,0.522
391.5,-0.0155,0.522
391.599,-0.0155,0.523
391.7,-0.015,0.521
391.8,-0.015,0.5205
391.901,-0.0145,0.5215
392,-0.015,0.52
392.1,-0.015,0.5195
392.2,-0.015,0.519
392.299,-0.0155,0.517
392.399,-0.0155,0.5165
392.5,-0.015,0.518
392.6,-0.015,0.518
392.7,-0.015,0.517
392.799,-0.0155,0.515
392.9,-0.015,0.5165
393.001,-0.0145,0.517
393.1,-0.015,0.5155
393.201,-0.0145,0.5165
393.3,-0.015,0.5145
393.4,-0.015,0.5145
393.5,-0.015,0.514
393.6,-0.015,0.5135
393.7,-0.0145,0.513
393.8,-0.015,0.5125
393.9,-0.015,0.512
394,-0.015,0.5115
394.101,-0.0145,0.512
394.201,-0.0145,0.5115
394.301,-0.0145,0.511
394.4,-0.015,0.51
394.5,-0.0145,0.51
394.601,-0.0145,0.5105
394.701,-0.0145,0.5105
394.8,-0.0145,0.51
394.9,-0.0145,0.5105
395.001,-0.0145,0.511
395.1,-0.0145,0.51
395.201,-0.0145,0.51
395.301,-0.0145,0.51
395.4,-0.0145,0.509
395.5,-0.0145,0.5085
395.6,-0.0145,0.508
395.699,-0.0145,0.5075
395.8,-0.0145,0.507
395.9,-0.0145,0.5065
396,-0.0145,0.506
396.101,-0.0145,0.5055
396.2,-0.0145,0.505
396.299,-0.0145,0.504
396.4,-0.0145,0.5045
396.5,-0.0145,0.5045
396.6,-0.0145,0.504
396.7,-0.0145,0.504
396.8,-0.0145,0.504
396.9,-0.0145,0.504
397,-0.0145,0.504
397.1,-0.0145,0.5035
397.2,-0.0145,0.503
397.3,-0.0145,0.502
397.401,-0.014,0.501
397.499,-0.0145,0.501
397.6,-0.0145,0.5005
397.7,-0.0145,0.4995
397.8,-0.0145,0.499
397.9,-0.0145,0.499
398,-0.0145,0.499
398.1,-0.0145,0.499
398.2,-0.0145,0.4985
398.3,-0.0145,0.4965
398.401,-0.014,0.4975
398.5,-0.014,0.498
398.6,-0.0145,0.498
398.701,-0.014,0.4965
398.8,-0.014,0.4975
398.9,-0.014,0.497
399,-0.014,0.4965
399.1,-0.014,0.4965
399.199,-0.0145,0.497
399.299,-0.0145,0.4965
399.4,-0.014,0.4955
399.5,-0.0135,0.4935
399.6,-0.014,0.4955
399.699,-0.0145,0.4955
399.8,-0.014,0.494
399.9,-0.014,0.4925
400,-0.014,0.4935
400.1,-0.014,0.494
400.2,-0.014,0.4935
400.3,-0.014,0.492
400.399,-0.014,0.492
400.5,-0.014,0.4915
400.6,-0.014,0.4915
400.7,-0.014,0.491
400.8,-0.014,0.49
400.9,-0.014,0.49
400.999,-0.0135,0.4895
401.1,-0.014,0.489
401.2,-0.0135,0.486
401.3,-0.0135,0.4875
401.4,-0.0135,0.487
401.5,-0.0135,0.4865
401.6,-0.0135,0.486
401.7,-0.0135,0.4855
401.8,-0.014,0.485
401.899,-0.014,0.4855
402,-0.0135,0.4845
402.099,-0.014,0.4855
402.2,-0.013,0.48
402.299,-0.014,0.485
402.4,-0.0135,0.4835
402.5,-0.0135,0.483
402.601,-0.013,0.481
402.7,-0.0135,0.4825
402.8,-0.0135,0.482
402.9,-0.0135,0.4815
403,-0.0135,0.4815
403.099,-0.014,0.483
403.2,-0.0145,0.4805
403.299,-0.0135,0.4815
403.4,-0.013,0.479
403.499,-0.0135,0.4805
403.6,-0.013,0.478
403.7,-0.0135,0.4775
403.8,-0.013,0.477
403.901,-0.013,0.4745
404,-0.0135,0.474
404.1,-0.013,0.475
404.2,-0.013,0.4745
404.301,-0.0135,0.4715
404.4,-0.013,0.4735
404.5,-0.013,0.473
404.6,-0.013,0.4725
404.7,-0.013,0.4725
404.8,-0.013,0.4725
404.901,-0.0135,0.47
405,-0.0135,0.472
405.1,-0.013,0.4715
405.2,-0.0135,0.4685
405.3,-0.0135,0.4705
405.4,-0.0135,0.47
405.501,-0.0135,0.4675
405.6,-0.0135,0.469
405.7,-0.0135,0.4685
405.8,-0.0135,0.468
405.901,-0.0135,0.4655
406,-0.0135,0.467
406.1,-0.0135,0.4665
406.201,-0.0135,0.464
406.3,-0.0135,0.466
406.4,-0.0135,0.4655
406.5,-0.0135,0.465
406.599,-0.0135,0.464
406.7,-0.0135,0.464
406.799,-0.013,0.4655
406.899,-0.0135,0.465
407,-0.0135,0.4625
407.099,-0.0135,0.4645
407.2,-0.0135,0.4615
407.3,-0.0135,0.461
407.4,-0.0135,0.4605
407.5,-0.0135,0.46
407.6,-0.0135,0.4595
407.7,-0.0135,0.4585
407.8,-0.0135,0.458
407.899,-0.0135,0.46
408,-0.0135,0.457
408.1,-0.0135,0.456
408.2,-0.0135,0.4555
408.299,-0.0135,0.4575
408.4,-0.0135,0.4545
408.5,-0.0135,0.4545
408.6,-0.0135,0.454
408.699,-0.0135,0.4555
408.8,-0.0135,0.453
408.9,-0.0135,0.451
409,-0.0135,0.453
409.1,-0.0135,0.4525
409.2,-0.0135,0.452
409.299,-0.0135,0.4535
409.4,-0.0135,0.451
409.5,-0.0135,0.45
409.6,-0.0135,0.449
409.7,-0.0135,0.4485
409.801,-0.0135,0.4465
409.9,-0.0135,0.4475
410,-0.0135,0.447
410.101,-0.0135,0.4455
410.2,-0.0135,0.4465
410.3,-0.0135,0.446
410.4,-0.0135,0.4455
410.5,-0.013,0.445
410.599,-0.0135,0.4465
410.699,-0.0135,0.446
410.8,-0.0135,0.444
410.9,-0.0135,0.4445
411,-0.0135,0.444
411.1,-0.0135,0.4445
411.2,-0.0135,0.444
411.3,-0.0135,0.4435
411.4,-0.0135,0.4435
411.5,-0.0135,0.4435
411.6,-0.0135,0.443
411.699,-0.0135,0.444
411.799,-0.0135,0.444
411.9,-0.0135,0.4415
412,-0.0135,0.4415
412.1,-0.0135,0.4405
412.2,-0.0135,0.44
412.3,-0.0135,0.439
412.399,-0.0135,0.439
412.499,-0.0135,0.437
412.6,-0.0135,0.436
412.7,-0.0135,0.4345
412.8,-0.0135,0.434
412.901,-0.014,0.4335
413,-0.0135,0.434
413.1,-0.014,0.435
413.201,-0.014,0.4345
413.3,-0.014,0.436
413.4,-0.014,0.436
413.499,-0.0135,0.437
413.6,-0.014,0.4355
413.7,-0.014,0.4355
413.801,-0.014,0.4345
413.9,-0.014,0.4345
413.999,-0.0135,0.435
414.099,-0.0135,0.4345
414.199,-0.0135,0.434
414.3,-0.014,0.4325
414.401,-0.014,0.4315
414.5,-0.014,0.4315
414.6,-0.014,0.4305
414.7,-0.014,0.4305
414.8,-0.014,0.43
414.9,-0.014,0.4295
415,-0.014,0.4295
415.1,-0.014,0.4295
415.2,-0.014,0.429
415.3,-0.014,0.4285
415.399,-0.014,0.4285
415.5,-0.014,0.4275
415.6,-0.014,0.4275
415.699,-0.014,0.4275
415.8,-0.014,0.427
415.9,-0.014,0.4265
416.001,-0.015,0.427
416.101,-0.015,0.4265
416.2,-0.0145,0.4255
416.3,-0.0145,0.425
416.4,-0.0145,0.4245
416.5,-0.0145,0.4245
416.6,-0.0145,0.4235
416.7,-0.0145,0.423
416.8,-0.0145,0.4225
416.9,-0.0145,0.422
417,-0.0145,0.4215
417.1,-0.015,0.421
417.199,-0.014,0.4205
417.3,-0.015,0.4205
417.401,-0.0165,0.4215
417.5,-0.015,0.42
417.6,-0.0155,0.42
417.7,-0.0165,0.4205
417.799,-0.0155,0.4195
417.9,-0.0165,0.4205
418,-0.0155,0.4185
418.1,-0.016,0.4185
418.2,-0.016,0.418
418.3,-0.017,0.4185
418.4,-0.016,0.4165
418.499,-0.015,0.4145
418.6,-0.0165,0.415
418.7,-0.0165,0.4145
418.799,-0.0165,0.414
418.9,-0.0165,0.413
418.999,-0.015,0.4115
419.102,-0.0165,0.4155
419.2,-0.017,0.413
419.3,-0.017,0.4125
419.4,-0.017,0.4105
419.499,-0.016,0.409
419.599,-0.016,0.4085
419.7,-0.017,0.4095
419.799,-0.0165,0.4075
419.899,-0.0165,0.407
419.999,-0.0165,0.4065
420.1,-0.017,0.407
420.2,-0.017,0.407
420.299,-0.0165,0.405
420.4,-0.017,0.406
420.499,-0.0165,0.4045
420.6,-0.017,0.4055
420.7,-0.017,0.405
420.799,-0.017,0.4045
420.9,-0.017,0.404
421,-0.0165,0.403
421.101,-0.016,0.4045
421.2,-0.0165,0.402
421.3,-0.0165,0.4015
421.401,-0.016,0.403
421.502,-0.016,0.4045
421.6,-0.0165,0.4
421.7,-0.0165,0.3995
421.799,-0.017,0.3975
421.899,-0.017,0.397
422,-0.0165,0.3985
422.1,-0.0165,0.398
422.2,-0.0165,0.3975
422.3,-0.016,0.3965
422.4,-0.016,0.396
422.5,-0.016,0.3955
422.601,-0.016,0.3985
422.7,-0.016,0.397
422.8,-0.016,0.395
422.9,-0.0165,0.3945
423,-0.016,0.394
423.1,-0.016,0.3935
423.2,-0.016,0.393
423.3,-0.016,0.3925
423.4,-0.016,0.392
423.501,-0.016,0.393
423.6,-0.016,0.3925
423.7,-0.016,0.3905
423.8,-0.016,0.39
423.899,-0.0165,0.3875
424,-0.016,0.389
424.1,-0.016,0.388
424.2,-0.016,0.3875
424.3,-0.016,0.387
424.4,-0.016,0.386
424.499,-0.016,0.384
424.599,-0.016,0.3835
424.7,-0.016,0.3845
424.8,-0.016,0.3835
424.899,-0.016,0.3815
424.999,-0.016,0.381
425.099,-0.016,0.38
425.2,-0.016,0.3805
425.299,-0.0165,0.3785
425.4,-0.016,0.3795
425.5,-0.0155,0.379
425.599,-0.016,0.3765
425.699,-0.0155,0.377
425.8,-0.0155,0.3765
425.901,-0.0155,0.377
426,-0.0155,0.376
426.1,-0.0155,0.374
426.2,-0.0155,0.3735
426.299,-0.0155,0.373
426.4,-0.0155,0.372
426.5,-0.0155,0.3715
426.599,-0.016,0.37
426.699,-0.016,0.369
426.8,-0.0155,0.369
426.899,-0.0155,0.3675
426.999,-0.0155,0.3665
427.1,-0.0155,0.3665
427.199,-0.0155,0.3645
427.3,-0.0155,0.3645
427.399,-0.0155,0.3625
427.501,-0.015,0.363
427.6,-0.0155,0.362
427.699,-0.015,0.3615
427.8,-0.015,0.361
427.9,-0.0155,0.3605
428,-0.0155,0.36
428.1,-0.015,0.3595
428.2,-0.015,0.359
428.301,-0.015,0.3585
428.401,-0.015,0.3585
428.5,-0.015,0.358
428.6,-0.015,0.358
428.699,-0.015,0.357
428.8,-0.015,0.3575
428.9,-0.015,0.357
429,-0.015,0.3565
429.1,-0.015,0.356
429.201,-0.0145,0.353
429.3,-0.015,0.354
429.4,-0.015,0.353
429.5,-0.015,0.353
429.6,-0.015,0.352
429.7,-0.015,0.3515
429.801,-0.0145,0.35
429.9,-0.015,0.35
430,-0.015,0.3495
430.101,-0.0145,0.348
430.201,-0.0145,0.347
430.3,-0.015,0.3475
430.4,-0.0145,0.345
430.5,-0.0145,0.3465
430.6,-0.0145,0.344
430.7,-0.015,0.3425
430.801,-0.0145,0.342
430.9,-0.0145,0.341
431.001,-0.014,0.34
431.101,-0.014,0.3395
431.199,-0.015,0.34
431.3,-0.0145,0.3385
431.401,-0.014,0.3365
431.5,-0.0145,0.337
431.601,-0.014,0.335
431.7,-0.0145,0.335
431.8,-0.0145,0.3345
431.9,-0.0145,0.334
432,-0.0145,0.3335
432.1,-0.0145,0.3325
432.2,-0.0145,0.332
432.3,-0.0145,0.331
432.4,-0.0145,0.33
432.499,-0.014,0.3295
432.6,-0.0145,0.3285
432.701,-0.014,0.3265
432.8,-0.014,0.327
432.901,-0.014,0.325
433,-0.014,0.325
433.101,-0.014,0.3235
433.201,-0.014,0.3225
433.3,-0.015,0.323
433.399,-0.0135,0.3225
433.5,-0.014,0.3205
433.6,-0.014,0.321
433.699,-0.0145,0.3215
433.799,-0.0145,0.3215
433.9,-0.014,0.32
434,-0.014,0.319
434.1,-0.014,0.319
434.199,-0.014,0.32
434.3,-0.014,0.3185
434.399,-0.014,0.3175
434.5,-0.014,0.317
434.6,-0.014,0.3165
434.699,-0.014,0.3155
434.8,-0.014,0.3155
434.899,-0.014,0.315
435,-0.014,0.3145
435.101,-0.014,0.3125
435.2,-0.014,0.3135
435.3,-0.014,0.313
435.399,-0.014,0.314
435.499,-0.014,0.3135
435.6,-0.014,0.3115
435.7,-0.014,0.309
435.8,-0.0145,0.31
435.9,-0.0145,0.309
436,-0.014,0.3085
436.1,-0.0145,0.3065
436.2,-0.014,0.3055
436.299,-0.0145,0.305
436.4,-0.0145,0.3045
436.499,-0.014,0.3035
436.6,-0.014,0.3015
436.7,-0.014,0.3015
436.8,-0.014,0.3005
436.9,-0.014,0.2995
437,-0.014,0.2985
437.101,-0.014,0.2965
437.201,-0.014,0.296
437.3,-0.014,0.2965
437.4,-0.014,0.2955
437.5,-0.014,0.2945
437.6,-0.014,0.294
437.699,-0.014,0.293
437.8,-0.014,0.2925
437.899,-0.0145,0.293
438,-0.014,0.291
438.1,-0.014,0.29
438.2,-0.014,0.288
438.301,-0.014,0.2875
438.4,-0.0145,0.2875
438.5,-0.014,0.2875
438.6,-0.014,0.287
438.7,-0.014,0.2865
438.799,-0.014,0.287
438.9,-0.014,0.285
439,-0.014,0.2845
439.1,-0.014,0.2835
439.2,-0.014,0.283
439.3,-0.014,0.2825
439.401,-0.014,0.281
439.5,-0.014,0.2815
439.601,-0.0145,0.2795
439.7,-0.014,0.2805
439.799,-0.0145,0.2815
439.9,-0.014,0.28
440,-0.014,0.2785
440.1,-0.014,0.2785
440.199,-0.014,0.278
440.3,-0.0145,0.2775
440.4,-0.0145,0.2765
440.501,-0.0145,0.275
440.6,-0.0145,0.2755
440.7,-0.0145,0.275
440.8,-0.0145,0.2745
440.899,-0.014,0.275
440.999,-0.014,0.273
441.1,-0.0145,0.271
441.2,-0.0145,0.2725
441.3,-0.0145,0.272
441.4,-0.0145,0.2715
441.499,-0.014,0.272
441.6,-0.0145,0.2705
441.7,-0.0145,0.27
441.799,-0.0145,0.2695
441.9,-0.0145,0.269
441.999,-0.0145,0.2695
442.1,-0.0145,0.2675
442.2,-0.0145,0.267
442.3,-0.0145,0.2665
442.4,-0.0145,0.266
442.501,-0.0145,0.2645
442.6,-0.0145,0.2645
442.7,-0.0145,0.2635
442.799,-0.0145,0.2635
442.9,-0.0145,0.2625
443,-0.0145,0.2625
443.1,-0.0145,0.262
443.201,-0.0145,0.2605
443.3,-0.0145,0.2605
443.4,-0.0145,0.26
443.5,-0.0145,0.259
443.6,-0.0145,0.2575
443.7,-0.0145,0.2565
443.8,-0.0145,0.2555
443.901,-0.015,0.254
444,-0.0145,0.254
444.1,-0.0145,0.253
444.199,-0.0145,0.253
444.3,-0.0145,0.2515
444.4,-0.015,0.251
444.5,-0.0145,0.25
444.6,-0.0145,0.2495
444.701,-0.015,0.248
444.8,-0.015,0.247
444.9,-0.0145,0.2465
445,-0.015,0.2455
445.099,-0.0145,0.245
445.2,-0.015,0.244
445.3,-0.015,0.243
445.399,-0.0145,0.2425
445.5,-0.015,0.241
445.601,-0.016,0.2405
445.7,-0.015,0.2385
445.799,-0.015,0.238
445.9,-0.015,0.2365
446,-0.016,0.236
446.101,-0.0165,0.235
446.201,-0.0165,0.2345
446.3,-0.015,0.2335
446.4,-0.015,0.232
446.499,-0.0145,0.2315
446.6,-0.015,0.23
446.7,-0.0155,0.229
446.799,-0.015,0.228
446.9,-0.0155,0.2265
447,-0.0155,0.225
447.1,-0.0155,0.224
447.201,-0.017,0.223
447.3,-0.0155,0.2215
447.4,-0.0155,0.2205
447.5,-0.0155,0.2195
447.6,-0.016,0.2185
447.7,-0.016,0.218
447.799,-0.015,0.217
447.9,-0.016,0.2165
448,-0.016,0.2155
448.1,-0.016,0.215
448.199,-0.015,0.2145
448.3,-0.016,0.214
448.4,-0.0165,0.213
448.5,-0.0165,0.2125
448.599,-0.0165,0.2115
448.7,-0.0165,0.211
448.8,-0.0165,0.2105
448.899,-0.0155,0.21
449,-0.017,0.21
449.1,-0.017,0.21
449.2,-0.017,0.209
449.3,-0.017,0.2085
449.4,-0.017,0.208
449.499,-0.017,0.207
449.599,-0.017,0.206
449.7,-0.017,0.205
449.8,-0.017,0.205
449.899,-0.016,0.2045
449.999,-0.016,0.2035
450.1,-0.0175,0.203
450.199,-0.016,0.202
450.299,-0.017,0.2015
450.399,-0.0175,0.201
450.5,-0.0175,0.2005
450.599,-0.0165,0.1995
450.7,-0.0175,0.199
450.8,-0.0175,0.2
450.9,-0.0175,0.1975
451.001,-0.0175,0.1975
451.101,-0.0175,0.197
451.2,-0.0175,0.1955
451.3,-0.0175,0.195
451.4,-0.0175,0.194
451.499,-0.017,0.193
451.6,-0.0175,0.1925
451.699,-0.017,0.191
451.799,-0.017,0.1905
451.9,-0.0175,0.19
452.001,-0.017,0.19
452.1,-0.018,0.189
452.201,-0.017,0.1885
452.3,-0.0175,0.1875
452.401,-0.0175,0.1875
452.5,-0.0175,0.1865
452.6,-0.0175,0.1855
452.7,-0.0175,0.185
452.799,-0.0175,0.184
452.9,-0.0175,0.1835
453,-0.0175,0.1835
453.101,-0.0175,0.1835
453.2,-0.0175,0.183
453.299,-0.0175,0.183
453.4,-0.0165,0.1845
453.501,-0.017,0.183
453.6,-0.0175,0.1815
453.7,-0.0175,0.1805
453.799,-0.0175,0.179
453.899,-0.018,0.1775
454,-0.0175,0.177
454.1,-0.0175,0.176
454.201,-0.017,0.177
454.3,-0.0175,0.175
454.4,-0.0165,0.1765
454.5,-0.0175,0.1735
454.6,-0.0175,0.173
454.7,-0.0175,0.1725
454.801,-0.017,0.173
454.901,-0.017,0.1725
455,-0.0175,0.1705
455.1,-0.0175,0.17
455.201,-0.017,0.1705
455.301,-0.017,0.1705
455.401,-0.017,0.169
455.5,-0.0175,0.167
455.6,-0.017,0.1675
455.7,-0.017,0.1655
455.8,-0.017,0.165
455.9,-0.017,0.1645
456,-0.017,0.164
456.1,-0.017,0.1635
456.2,-0.017,0.163
456.301,-0.0165,0.1635
456.401,-0.017,0.1625
456.501,-0.017,0.162
456.6,-0.017,0.1605
456.7,-0.017,0.16
456.8,-0.0165,0.16
456.9,-0.017,0.159
457,-0.017,0.1585
457.099,-0.0175,0.1565
457.2,-0.017,0.157
457.301,-0.017,0.1575
457.4,-0.017,0.156
457.5,-0.017,0.156
457.6,-0.017,0.1555
457.7,-0.017,0.155
457.801,-0.017,0.156
457.9,-0.017,0.1545
458,-0.0165,0.1545
458.1,-0.017,0.154
458.2,-0.017,0.154
458.3,-0.0165,0.1535
458.399,-0.017,0.152
458.499,-0.017,0.153
458.6,-0.017,0.1525
458.701,-0.0165,0.153
458.8,-0.017,0.152
458.9,-0.017,0.1515
459,-0.017,0.151
459.101,-0.0165,0.151
459.201,-0.0165,0.1505
459.301,-0.0165,0.15
459.401,-0.0165,0.15
459.5,-0.017,0.1485
459.601,-0.0165,0.149
459.7,-0.017,0.1475
459.8,-0.0165,0.147
459.899,-0.017,0.1455
459.999,-0.0165,0.146
460.1,-0.0165,0.1455
460.2,-0.0165,0.146
460.3,-0.0165,0.1445
460.4,-0.0165,0.1445
460.5,-0.0165,0.144
460.6,-0.0165,0.1435
460.7,-0.0165,0.1435
460.799,-0.017,0.142
460.9,-0.0165,0.143
460.999,-0.017,0.1415
461.099,-0.017,0.141
461.2,-0.0165,0.1415
461.3,-0.0165,0.141
461.401,-0.016,0.142
461.5,-0.0165,0.141
461.6,-0.016,0.142
461.699,-0.016,0.141
461.8,-0.0165,0.1405
461.9,-0.0165,0.1405
461.999,-0.0165,0.14
462.1,-0.0165,0.141
462.201,-0.016,0.1415
462.3,-0.0165,0.142
462.4,-0.0165,0.141
462.501,-0.016,0.1415
462.6,-0.016,0.1405
462.699,-0.016,0.1405
462.8,-0.016,0.14
462.9,-0.016,0.14
463.001,-0.016,0.1405
463.1,-0.016,0.1395
463.199,-0.016,0.139
463.3,-0.016,0.1385
463.4,-0.016,0.1385
463.5,-0.016,0.138
463.6,-0.016,0.1375
463.7,-0.016,0.137
463.801,-0.016,0.138
463.901,-0.016,0.1375
464,-0.016,0.137
464.1,-0.016,0.1355
464.2,-0.016,0.135
464.3,-0.016,0.1345
464.399,-0.016,0.1335
464.5,-0.0165,0.134
464.6,-0.016,0.134
464.701,-0.016,0.134
464.8,-0.016,0.133
464.9,-0.016,0.1325
465,-0.016,0.1325
465.1,-0.016,0.132
465.2,-0.016,0.132
465.3,-0.0155,0.132
465.4,-0.016,0.1315
465.5,-0.016,0.131
465.6,-0.016,0.131
465.7,-0.016,0.1305
465.8,-0.016,0.1305
465.9,-0.016,0.13
466,-0.016,0.13
466.1,-0.015,0.13
466.199,-0.016,0.1285
466.299,-0.016,0.129
466.4,-0.016,0.129
466.5,-0.016,0.129
466.6,-0.016,0.1285
466.7,-0.016,0.1285
466.799,-0.016,0.128
466.901,-0.0155,0.1285
467.001,-0.0155,0.1285
467.1,-0.016,0.128
467.201,-0.0155,0.1295
467.301,-0.0155,0.1265
467.4,-0.016,0.128
467.5,-0.0155,0.128
467.6,-0.016,0.128
467.7,-0.016,0.128
467.8,-0.016,0.128
467.901,-0.0155,0.128
468.001,-0.0155,0.128
468.1,-0.0155,0.1275
468.2,-0.0155,0.1275
468.3,-0.0155,0.1275
468.401,-0.0155,0.1275
468.499,-0.016,0.1265
468.6,-0.0155,0.1265
468.7,-0.0155,0.127
468.8,-0.0155,0.1265
468.9,-0.0155,0.126
469,-0.0155,0.1265
469.099,-0.016,0.125
469.2,-0.0155,0.1235
469.299,-0.0155,0.1245
469.399,-0.0155,0.124
469.5,-0.0155,0.1245
469.601,-0.015,0.1245
469.7,-0.0155,0.124
469.8,-0.0155,0.124
469.9,-0.015,0.124
470,-0.015,0.124
470.101,-0.015,0.1235
470.2,-0.0155,0.1235
470.3,-0.0155,0.1235
470.4,-0.0155,0.1235
470.5,-0.0155,0.123
470.6,-0.015,0.123
470.7,-0.015,0.123
470.8,-0.015,0.123
470.899,-0.0155,0.123
471,-0.015,0.123
471.1,-0.0155,0.1225
471.2,-0.015,0.1225
471.3,-0.015,0.122
471.4,-0.015,0.1215
471.5,-0.015,0.1205
471.6,-0.015,0.1205
471.7,-0.015,0.12
471.8,-0.015,0.1195
471.901,-0.0145,0.119
472.001,-0.015,0.119
472.101,-0.015,0.1185
472.2,-0.0155,0.118
472.3,-0.0145,0.118
472.4,-0.0145,0.118
472.499,-0.015,0.118
472.6,-0.0145,0.1175
472.7,-0.014,0.117
472.8,-0.0145,0.117
472.9,-0.0145,0.1165
472.999,-0.015,0.117
473.1,-0.0145,0.1165
473.201,-0.015,0.1165
473.3,-0.0145,0.116
473.401,-0.015,0.116
473.501,-0.015,0.1165
473.6,-0.0145,0.1165
473.7,-0.015,0.1165
473.8,-0.015,0.117
473.901,-0.015,0.1165
474.001,-0.015,0.117
474.101,-0.015,0.117
474.2,-0.015,0.117
474.3,-0.015,0.117
474.4,-0.015,0.1175
474.499,-0.015,0.1175
474.599,-0.015,0.1175
474.7,-0.015,0.116
474.8,-0.015,0.1175
474.9,-0.015,0.118
475.001,-0.015,0.117
475.1,-0.015,0.1175
475.201,-0.015,0.1165
475.3,-0.015,0.117
475.401,-0.015,0.1155
475.5,-0.015,0.115
475.6,-0.015,0.1155
475.7,-0.015,0.115
475.8,-0.015,0.115
475.899,-0.0145,0.115
475.999,-0.015,0.115
476.1,-0.015,0.114
476.2,-0.015,0.114
476.301,-0.015,0.113
476.4,-0.015,0.113
476.5,-0.015,0.1125
476.601,-0.015,0.1115
476.7,-0.015,0.1115
476.8,-0.015,0.1115
476.899,-0.015,0.1115
477,-0.015,0.11
477.101,-0.015,0.109
477.2,-0.015,0.1095
477.302,-0.015,0.108
477.401,-0.015,0.108
477.501,-0.015,0.108
477.6,-0.015,0.108
477.699,-0.015,0.1085
477.799,-0.015,0.1085
477.9,-0.015,0.107
478,-0.015,0.107
478.1,-0.015,0.1065
478.2,-0.015,0.107
478.3,-0.015,0.107
478.401,-0.015,0.106
478.5,-0.015,0.107
478.6,-0.015,0.107
478.7,-0.015,0.1075
478.799,-0.015,0.1075
478.9,-0.015,0.107
479.001,-0.015,0.1065
479.1,-0.015,0.1065
479.2,-0.015,0.107
479.3,-0.015,0.1065
479.4,-0.015,0.1065
479.499,-0.015,0.107
479.6,-0.015,0.106
479.7,-0.015,0.106
479.8,-0.015,0.1055
479.901,-0.015,0.105
480,-0.015,0.1055
480.1,-0.015,0.1055
480.199,-0.015,0.106
480.3,-0.015,0.1055
480.4,-0.015,0.105
480.5,-0.0145,0.105
480.6,-0.015,0.105
480.7,-0.015,0.105
480.8,-0.015,0.105
480.9,-0.015,0.105
481,-0.015,0.105
481.1,-0.015,0.1045
481.2,-0.015,0.105
481.299,-0.015,0.1045
481.4,-0.015,0.1045
481.5,-0.015,0.1055
481.6,-0.015,0.1055
481.7,-0.015,0.1055
481.801,-0.015,0.105
481.9,-0.015,0.1055
482,-0.015,0.1055
482.1,-0.015,0.1055
482.2,-0.015,0.1055
482.3,-0.015,0.1055
482.4,-0.015,0.1055
482.5,-0.015,0.105
482.6,-0.015,0.105
482.701,-0.015,0.104
482.8,-0.015,0.1045
482.9,-0.015,0.1045
483,-0.015,0.104
483.1,-0.015,0.104
483.2,-0.015,0.1045
483.299,-0.015,0.105
483.401,-0.0155,0.104
483.5,-0.015,0.1045
483.599,-0.015,0.105
483.699,-0.015,0.105
483.8,-0.015,0.1045
483.9,-0.015,0.105
484,-0.015,0.105
484.1,-0.015,0.105
484.199,-0.015,0.1055
484.301,-0.0155,0.1045
484.401,-0.0155,0.105
484.5,-0.015,0.1055
484.599,-0.015,0.106
484.699,-0.015,0.107
484.8,-0.015,0.1065
484.9,-0.015,0.1065
485.001,-0.0155,0.106
485.1,-0.0155,0.107
485.201,-0.0155,0.1065
485.301,-0.0155,0.1065
485.4,-0.015,0.107
485.5,-0.015,0.1075
485.6,-0.015,0.1075
485.7,-0.015,0.1075
485.8,-0.0155,0.108
485.901,-0.0155,0.1075
486.001,-0.0155,0.1075
486.1,-0.0155,0.1075
486.2,-0.015,0.109
486.3,-0.015,0.109
486.4,-0.0155,0.109
486.501,-0.0155,0.1085
486.601,-0.0155,0.109
486.7,-0.015,0.11
486.8,-0.0155,0.11
486.899,-0.015,0.1105
487,-0.015,0.11
487.1,-0.015,0.1095
487.2,-0.015,0.1095
487.299,-0.015,0.11
487.399,-0.015,0.11
487.5,-0.015,0.1095
487.6,-0.015,0.1095
487.7,-0.0155,0.1095
487.8,-0.015,0.109
487.901,-0.0155,0.1085
488,-0.015,0.1085
488.101,-0.0155,0.108
488.2,-0.0155,0.1085
488.301,-0.0155,0.1075
488.4,-0.015,0.1085
488.5,-0.0155,0.1075
488.6,-0.0155,0.1075
488.7,-0.015,0.108
488.8,-0.015,0.108
488.899,-0.015,0.1085
489,-0.0155,0.108
489.1,-0.015,0.1085
489.201,-0.0155,0.108
489.3,-0.0155,0.1085
489.4,-0.015,0.1085
489.5,-0.015,0.109
489.6,-0.015,0.109
489.699,-0.015,0.1095
489.801,-0.0155,0.1085
489.9,-0.015,0.1095
490.001,-0.0155,0.109
490.1,-0.0155,0.1095
490.2,-0.0155,0.11
490.3,-0.015,0.11
490.399,-0.015,0.11
490.5,-0.0155,0.1095
490.6,-0.0155,0.1105
490.7,-0.0155,0.1105
490.8,-0.015,0.111
490.9,-0.0155,0.111
491,-0.015,0.11
491.1,-0.015,0.1095
491.201,-0.0155,0.1085
491.3,-0.0155,0.1095
491.4,-0.015,0.1095
491.5,-0.0155,0.1095
491.6,-0.0155,0.109
491.7,-0.0155,0.1095
491.8,-0.0155,0.1095
491.901,-0.0155,0.1085
492,-0.0155,0.1095
492.101,-0.0155,0.1085
492.2,-0.0155,0.109
492.3,-0.015,0.109
492.399,-0.015,0.11
492.5,-0.0155,0.1085
492.599,-0.015,0.1085
492.699,-0.0155,0.1075
492.8,-0.0155,0.107
492.902,-0.0155,0.105
493,-0.015,0.1065
493.101,-0.0155,0.1055
493.199,-0.015,0.107
493.3,-0.015,0.106
493.4,-0.0155,0.106
493.499,-0.015,0.1065
493.6,-0.015,0.106
493.7,-0.0155,0.106
493.8,-0.0155,0.1055
493.9,-0.0155,0.1055
494.001,-0.0155,0.1045
494.1,-0.0155,0.1045
494.2,-0.0155,0.104
494.3,-0.0155,0.1045
494.401,-0.0155,0.1015
494.501,-0.0155,0.1035
494.6,-0.0155,0.1035
494.701,-0.0155,0.1035
494.8,-0.0155,0.1035
494.9,-0.0155,0.1035
495.001,-0.0155,0.1025
495.101,-0.0155,0.1025
495.201,-0.0155,0.1025
495.3,-0.0155,0.1035
495.4,-0.0155,0.1035
495.5,-0.0155,0.1035
495.6,-0.0155,0.1035
495.699,-0.015,0.1045
495.799,-0.0155,0.1045
495.899,-0.0155,0.1045
496,-0.0155,0.104
496.101,-0.0155,0.1035
496.2,-0.0155,0.1035
496.3,-0.016,0.103
496.4,-0.0155,0.105
496.5,-0.0155,0.105
496.599,-0.0155,0.1015
496.7,-0.0155,0.101
496.8,-0.0155,0.1015
496.9,-0.0155,0.1015
496.999,-0.015,0.1025
497.1,-0.0155,0.102
497.2,-0.0155,0.1025
497.3,-0.0155,0.102
497.401,-0.0155,0.102
497.5,-0.0155,0.103
497.6,-0.0155,0.103
497.701,-0.0155,0.1025
497.8,-0.0155,0.1025
497.9,-0.0155,0.103
498,-0.0155,0.103
498.101,-0.0155,0.1025
498.2,-0.0155,0.103
498.3,-0.0155,0.103
498.4,-0.0155,0.103
498.5,-0.0155,0.103
498.601,-0.0155,0.102
498.7,-0.0155,0.1025
498.8,-0.0155,0.103
498.9,-0.0155,0.102
499,-0.0155,0.103
499.101,-0.0155,0.1025
499.2,-0.0155,0.1035
499.3,-0.0155,0.1035
499.399,-0.0155,0.104
499.499,-0.0155,0.104
499.599,-0.0155,0.1045
499.7,-0.0155,0.104
499.8,-0.0155,0.104
499.899,-0.0155,0.1045
500,-0.0155,0.104
500.102,-0.016,0.1025
500.2,-0.0155,0.103
500.3,-0.0155,0.1035
500.4,-0.0155,0.103
500.5,-0.0155,0.103
500.599,-0.0155,0.1035
500.7,-0.0155,0.103
500.8,-0.016,0.1015
500.899,-0.0155,0.103
501,-0.0155,0.1025
501.099,-0.0155,0.103
501.2,-0.0155,0.1025
501.3,-0.0155,0.1025
501.399,-0.0155,0.103
501.5,-0.0155,0.1025
501.6,-0.0155,0.103
501.7,-0.0155,0.103
501.799,-0.0155,0.104
501.9,-0.0155,0.1035
502,-0.0155,0.1035
502.099,-0.0155,0.104
502.199,-0.0155,0.1045
502.3,-0.0155,0.104
502.4,-0.016,0.1035
502.5,-0.0155,0.104
502.601,-0.016,0.1035
502.7,-0.016,0.0985
502.801,-0.016,0.0955
502.901,-0.016,0.0945
503,-0.0155,0.095
503.101,-0.016,0.0935
503.2,-0.0155,0.0935
503.301,-0.0155,0.092
503.4,-0.016,0.0915
503.5,-0.0155,0.0915
503.599,-0.0155,0.0895
503.699,-0.0155,0.089
503.8,-0.0155,0.0875
503.9,-0.0155,0.086
504,-0.0155,0.0855
504.1,-0.016,0.0845
504.2,-0.016,0.084
504.3,-0.0155,0.083
504.401,-0.016,0.0815
504.5,-0.016,0.0815
504.601,-0.0155,0.08
504.7,-0.016,0.079
504.8,-0.016,0.079
504.901,-0.016,0.078
505,-0.016,0.078
505.1,-0.016,0.0775
505.2,-0.016,0.0775
505.3,-0.016,0.076
505.401,-0.016,0.076
505.501,-0.016,0.076
505.599,-0.0155,0.0765
505.7,-0.016,0.0765
505.799,-0.0155,0.077
505.9,-0.016,0.0765
505.999,-0.016,0.077
506.1,-0.016,0.0765
506.2,-0.016,0.077
506.3,-0.016,0.0775
506.399,-0.016,0.0785
506.499,-0.016,0.079
506.6,-0.016,0.0785
506.7,-0.016,0.0785
506.801,-0.016,0.0785
506.9,-0.016,0.0785
507,-0.016,0.0795
507.1,-0.016,0.0795
507.2,-0.016,0.08
507.299,-0.016,0.0785
507.4,-0.016,0.08
507.5,-0.016,0.0805
507.6,-0.016,0.081
507.7,-0.016,0.0815
507.799,-0.016,0.0825
507.9,-0.016,0.082
508,-0.016,0.082
508.099,-0.016,0.083
508.2,-0.016,0.082
508.3,-0.016,0.082
508.401,-0.0165,0.0805
508.5,-0.016,0.0815
508.6,-0.016,0.0805
508.699,-0.016,0.081
508.799,-0.016,0.0805
508.9,-0.016,0.079
508.999,-0.016,0.08
509.099,-0.016,0.0795
509.199,-0.016,0.08
509.3,-0.016,0.079
509.4,-0.017,0.078
509.5,-0.0185,0.077
509.599,-0.016,0.079
509.7,-0.016,0.0775
509.8,-0.016,0.077
509.9,-0.0165,0.0765
510.001,-0.0175,0.075
510.1,-0.0165,0.0745
510.201,-0.0175,0.0735
510.3,-0.0165,0.073
510.4,-0.0165,0.0725
510.5,-0.0165,0.072
510.6,-0.0165,0.0715
510.701,-0.018,0.0705
510.801,-0.018,0.0705
510.9,-0.0165,0.0705
511,-0.0165,0.0705
511.1,-0.017,0.07
511.2,-0.017,0.0695
511.3,-0.017,0.069
511.401,-0.018,0.068
511.5,-0.017,0.068
511.599,-0.017,0.068
511.7,-0.018,0.0665
511.801,-0.0185,0.066
511.9,-0.0185,0.066
512,-0.017,0.0665
512.101,-0.0185,0.0655
512.2,-0.0185,0.0655
512.3,-0.0175,0.0665
512.399,-0.0165,0.067
512.501,-0.0185,0.0665
512.6,-0.0175,0.067
512.7,-0.0175,0.0675
512.799,-0.0175,0.0675
512.9,-0.0175,0.068
513.001,-0.019,0.0685
513.101,-0.0185,0.0685
513.2,-0.018,0.069
513.3,-0.018,0.069
513.399,-0.0165,0.0695
513.5,-0.018,0.0695
513.599,-0.0165,0.07
513.701,-0.0185,0.069
513.8,-0.0185,0.0695
513.9,-0.0185,0.0695
514,-0.0185,0.0695
514.1,-0.0185,0.0695
514.2,-0.0185,0.0695
514.3,-0.0185,0.0695
514.4,-0.0185,0.0695
514.5,-0.0185,0.07
514.6,-0.0185,0.0705
514.699,-0.0175,0.071
514.799,-0.0175,0.0715
514.9,-0.0185,0.071
515,-0.0185,0.0715
515.1,-0.019,0.072
515.2,-0.019,0.0715
515.299,-0.018,0.072
515.4,-0.019,0.072
515.501,-0.0185,0.0715
515.6,-0.019,0.0725
515.7,-0.019,0.0725
515.8,-0.019,0.0725
515.901,-0.0185,0.072
516,-0.019,0.073
516.101,-0.0185,0.0725
516.2,-0.019,0.0725
516.301,-0.0185,0.0725
516.401,-0.0185,0.0725
516.5,-0.019,0.073
516.6,-0.0185,0.073
516.7,-0.019,0.0735
516.8,-0.019,0.0735
516.901,-0.0185,0.073
517.001,-0.0185,0.0735
517.1,-0.019,0.074
517.201,-0.0185,0.0735
517.3,-0.0185,0.0735
517.4,-0.019,0.0735
517.5,-0.019,0.074
517.599,-0.019,0.0745
517.7,-0.0185,0.074
517.8,-0.0185,0.074
517.9,-0.0185,0.074
517.999,-0.019,0.075
518.1,-0.0185,0.0745
518.2,-0.0185,0.0745
518.3,-0.0185,0.0745
518.401,-0.018,0.075
518.501,-0.018,0.075
518.6,-0.0185,0.075
518.699,-0.019,0.0755
518.8,-0.0185,0.075
518.899,-0.0185,0.075
519,-0.0185,0.0755
519.1,-0.0185,0.075
519.2,-0.018,0.0755
519.3,-0.0185,0.075
519.4,-0.0185,0.075
519.5,-0.018,0.076
519.599,-0.019,0.075
519.699,-0.0185,0.075
519.799,-0.019,0.0755
519.9,-0.018,0.075
519.999,-0.018,0.0755
520.1,-0.018,0.0755
520.199,-0.018,0.075
520.3,-0.018,0.075
520.4,-0.018,0.075
520.5,-0.018,0.0755
520.6,-0.018,0.0755
520.701,-0.018,0.076
520.8,-0.018,0.076
520.9,-0.018,0.076
520.999,-0.0185,0.0755
521.1,-0.018,0.076
521.201,-0.018,0.0765
521.3,-0.018,0.076
521.399,-0.0185,0.0755
521.5,-0.018,0.076
521.599,-0.0185,0.0755
521.7,-0.018,0.076
521.8,-0.018,0.0765
521.9,-0.018,0.076
522,-0.018,0.076
522.1,-0.018,0.076
522.2,-0.018,0.0765
522.3,-0.018,0.0765
522.4,-0.018,0.0765
522.5,-0.018,0.0765
522.601,-0.018,0.0775
522.7,-0.018,0.0765
522.8,-0.018,0.077
522.9,-0.018,0.077
523,-0.018,0.0765
523.099,-0.018,0.0765
523.2,-0.018,0.0765
523.3,-0.018,0.077
523.401,-0.0175,0.077
523.5,-0.018,0.0765
523.6,-0.018,0.077
523.7,-0.018,0.0765
523.801,-0.0175,0.077
523.9,-0.0175,0.077
524,-0.018,0.076
524.099,-0.018,0.0755
524.2,-0.018,0.0755
524.299,-0.018,0.075
524.4,-0.018,0.075
524.501,-0.0175,0.0755
524.6,-0.0175,0.0745
524.699,-0.018,0.0735
524.799,-0.018,0.0735
524.899,-0.018,0.073
525,-0.0175,0.073
525.1,-0.0175,0.0725
525.199,-0.0175,0.072
525.3,-0.0175,0.0715
525.399,-0.018,0.071
525.499,-0.018,0.071
525.599,-0.018,0.0715
525.7,-0.0175,0.0715
525.8,-0.0175,0.072
525.9,-0.0175,0.0715
526.001,-0.0175,0.072
526.101,-0.0175,0.0725
526.2,-0.0175,0.0715
526.3,-0.0175,0.0715
526.4,-0.0175,0.072
526.501,-0.0175,0.0725
526.6,-0.0175,0.072
526.699,-0.018,0.0715
526.799,-0.0175,0.072
526.9,-0.0175,0.0725
527,-0.0175,0.073
527.1,-0.0175,0.073
527.201,-0.0175,0.0735
527.3,-0.0175,0.073
527.401,-0.017,0.074
527.5,-0.017,0.074
527.6,-0.017,0.0735
527.7,-0.0175,0.074
527.799,-0.0175,0.0735
527.9,-0.0175,0.0735
528.001,-0.017,0.0745
528.1,-0.0175,0.0735
528.2,-0.0175,0.074
528.3,-0.0175,0.074
528.401,-0.017,0.0745
528.5,-0.0175,0.074
528.6,-0.017,0.0745
528.7,-0.017,0.074
528.8,-0.0175,0.074
528.899,-0.0175,0.073
528.999,-0.0175,0.0725
529.1,-0.0175,0.0735
529.201,-0.017,0.0735
529.3,-0.017,0.0725
529.4,-0.017,0.072
529.5,-0.017,0.072
529.6,-0.0175,0.0715
529.7,-0.017,0.0715
529.8,-0.017,0.0715
529.9,-0.0175,0.071
530,-0.017,0.071
530.1,-0.017,0.071
530.201,-0.017,0.0715
530.301,-0.017,0.0715
530.4,-0.017,0.071
530.5,-0.0175,0.0705
530.6,-0.017,0.0705
530.7,-0.017,0.0715
530.799,-0.017,0.071
530.9,-0.017,0.071
531,-0.017,0.0715
531.1,-0.017,0.071
531.2,-0.017,0.0715
531.3,-0.017,0.071
531.4,-0.017,0.071
531.5,-0.017,0.071
531.6,-0.017,0.071
531.701,-0.0165,0.071
531.801,-0.017,0.072
531.9,-0.0165,0.0705
532,-0.017,0.0705
532.1,-0.017,0.0705
532.2,-0.017,0.0705
532.3,-0.017,0.0705
532.401,-0.0165,0.0715
532.501,-0.017,0.0695
532.6,-0.017,0.0705
532.701,-0.0165,0.0715
532.8,-0.017,0.0705
532.9,-0.017,0.0705
532.999,-0.0175,0.0695
533.101,-0.0165,0.0715
533.2,-0.0165,0.0705
533.3,-0.017,0.0705
533.4,-0.0165,0.0705
533.5,-0.0165,0.0705
533.6,-0.017,0.07
533.7,-0.017,0.0695
533.801,-0.0165,0.07
533.9,-0.017,0.0695
534,-0.017,0.069
534.1,-0.017,0.069
534.2,-0.017,0.069
534.3,-0.017,0.069
534.4,-0.016,0.069
534.5,-0.017,0.0685
534.6,-0.017,0.0685
534.7,-0.017,0.0685
534.8,-0.017,0.0685
534.9,-0.017,0.0685
535,-0.017,0.069
535.1,-0.017,0.069
535.199,-0.0175,0.0675
535.299,-0.017,0.069
535.4,-0.017,0.069
535.499,-0.017,0.0675
535.6,-0.017,0.069
535.701,-0.0165,0.0685
535.8,-0.017,0.0685
535.9,-0.017,0.0685
536,-0.017,0.0685
536.101,-0.0165,0.0685
536.2,-0.017,0.069
536.3,-0.0165,0.069
536.4,-0.0165,0.0685
536.501,-0.0165,0.0685
536.6,-0.017,0.069
536.7,-0.0165,0.067
536.8,-0.0165,0.0685
536.899,-0.017,0.0675
537,-0.0165,0.069
537.1,-0.0165,0.0675
537.2,-0.017,0.069
537.3,-0.0165,0.0685
537.401,-0.0165,0.0685
537.501,-0.0165,0.0685
537.6,-0.0165,0.0685
537.699,-0.017,0.0675
537.8,-0.0165,0.0675
537.899,-0.017,0.0675
538,-0.017,0.0665
538.099,-0.017,0.0675
538.2,-0.0165,0.068
538.3,-0.017,0.067
538.4,-0.0165,0.0675
538.499,-0.017,0.0675
538.599,-0.017,0.0675
538.7,-0.017,0.0685
538.8,-0.0165,0.0685
538.9,-0.017,0.0675
539.001,-0.0165,0.0685
539.1,-0.0165,0.0685
539.201,-0.0165,0.0675
539.3,-0.017,0.0665
539.4,-0.0165,0.067
539.5,-0.017,0.065
539.6,-0.017,0.0655
539.699,-0.017,0.066
539.799,-0.017,0.066
539.9,-0.0165,0.065
540.001,-0.0165,0.0645
540.1,-0.0165,0.064
540.2,-0.017,0.0635
540.3,-0.017,0.063
540.399,-0.017,0.0625
540.5,-0.017,0.0625
540.599,-0.017,0.0615
540.7,-0.017,0.0615
540.8,-0.0165,0.061
540.9,-0.0165,0.06
541,-0.017,0.0595
541.099,-0.017,0.059
541.2,-0.0165,0.059
541.3,-0.0165,0.0585
541.4,-0.017,0.057
541.501,-0.0165,0.057
541.601,-0.0165,0.0565
541.7,-0.0165,0.056
541.8,-0.017,0.055
541.9,-0.017,0.0545
542,-0.017,0.054
542.1,-0.017,0.0535
542.201,-0.0165,0.0535
542.3,-0.0165,0.0525
542.399,-0.017,0.052
542.5,-0.017,0.052
542.599,-0.017,0.051
542.7,-0.017,0.051
542.8,-0.0165,0.051
542.9,-0.0165,0.0505
543,-0.017,0.05
543.1,-0.017,0.0495
543.2,-0.017,0.049
543.3,-0.017,0.0485
543.4,-0.0165,0.049
543.5,-0.017,0.048
543.6,-0.0165,0.0485
543.7,-0.0165,0.048
543.799,-0.017,0.0475
543.9,-0.017,0.0475
543.999,-0.017,0.0475
544.1,-0.017,0.047
544.2,-0.017,0.047
544.301,-0.0165,0.047
544.4,-0.017,0.0465
544.499,-0.017,0.0455
544.6,-0.017,0.0455
544.7,-0.017,0.0455
544.8,-0.017,0.045
544.901,-0.0165,0.0455
545,-0.017,0.045
545.1,-0.017,0.0445
545.2,-0.017,0.0445
545.3,-0.017,0.0445
545.4,-0.017,0.0445
545.499,-0.017,0.044
545.6,-0.017,0.0445
545.7,-0.017,0.044
545.8,-0.017,0.0435
545.9,-0.017,0.043
546,-0.017,0.043
546.1,-0.017,0.043
546.2,-0.017,0.0425
546.301,-0.0165,0.0425
546.401,-0.0165,0.0425
546.5,-0.0165,0.042
546.599,-0.017,0.0415
546.7,-0.017,0.041
546.8,-0.017,0.041
546.899,-0.017,0.0405
547,-0.017,0.0405
547.101,-0.0165,0.041
547.2,-0.017,0.04
547.301,-0.0165,0.0405
547.4,-0.017,0.04
547.5,-0.017,0.04
547.599,-0.0175,0.039
547.699,-0.017,0.039
547.799,-0.017,0.039
547.9,-0.017,0.039
548,-0.017,0.0385
548.099,-0.017,0.038
548.2,-0.017,0.0385
548.301,-0.0165,0.0385
548.399,-0.017,0.038
548.5,-0.017,0.038
548.6,-0.017,0.038
548.7,-0.017,0.038
548.8,-0.017,0.038
548.9,-0.017,0.038
549,-0.017,0.038
549.101,-0.0165,0.038
549.201,-0.0165,0.038
549.3,-0.017,0.038
549.401,-0.0165,0.038
549.501,-0.0165,0.038
549.6,-0.017,0.038
549.7,-0.0165,0.0385
549.799,-0.017,0.0385
549.9,-0.017,0.039
550,-0.017,0.039
550.101,-0.0165,0.039
550.2,-0.017,0.0395
550.3,-0.017,0.0395
550.4,-0.0165,0.04
550.5,-0.0165,0.04
550.6,-0.017,0.04
550.7,-0.017,0.0405
550.8,-0.017,0.04
550.9,-0.017,0.0405
551,-0.017,0.0405
551.101,-0.0165,0.0405
551.201,-0.0165,0.0405
551.301,-0.0165,0.0405
551.401,-0.0165,0.0405
551.5,-0.017,0.0405
551.6,-0.017,0.0405
551.699,-0.017,0.04
551.8,-0.017,0.04
551.901,-0.017,0.04
552,-0.016,0.04
552.1,-0.0165,0.04
552.201,-0.016,0.0395
552.3,-0.017,0.039
552.399,-0.017,0.0385
552.5,-0.017,0.0385
552.6,-0.017,0.0385
552.699,-0.017,0.037
552.8,-0.017,0.0385
552.9,-0.017,0.0385
553,-0.017,0.0385
553.1,-0.017,0.0385
553.2,-0.0165,0.0385
553.3,-0.017,0.0385
553.401,-0.016,0.0385
553.5,-0.0165,0.038
553.6,-0.017,0.0385
553.7,-0.0165,0.038
553.8,-0.017,0.038
553.9,-0.017,0.0375
554,-0.017,0.0375
554.1,-0.017,0.0365
554.2,-0.017,0.0365
554.3,-0.017,0.036
554.401,-0.016,0.0355
554.5,-0.017,0.0355
554.6,-0.017,0.0355
554.7,-0.017,0.035
554.8,-0.016,0.0345
554.9,-0.017,0.0345
555,-0.0155,0.034
555.1,-0.0155,0.0335
555.199,-0.017,0.033
555.3,-0.017,0.0325
555.4,-0.017,0.032
555.5,-0.017,0.0315
555.6,-0.017,0.031
555.7,-0.017,0.03
555.8,-0.017,0.0295
555.9,-0.017,0.029
556,-0.017,0.0285
556.1,-0.017,0.028
556.2,-0.017,0.027
556.3,-0.017,0.0265
556.4,-0.017,0.026
556.5,-0.017,0.0255
556.6,-0.017,0.025
556.7,-0.017,0.0245
556.8,-0.017,0.0235
556.9,-0.017,0.0225
556.999,-0.017,0.0225
557.099,-0.0165,0.0215
557.2,-0.017,0.021
557.3,-0.017,0.02
557.399,-0.0175,0.0205
557.5,-0.017,0.0195
557.6,-0.017,0.019
557.699,-0.017,0.019
557.799,-0.017,0.0165
557.899,-0.017,0.016
557.999,-0.017,0.0175
558.099,-0.017,0.0165
558.2,-0.017,0.0165
558.299,-0.017,0.0145
558.4,-0.017,0.016
558.5,-0.017,0.0155
558.601,-0.016,0.0155
558.7,-0.017,0.015
558.8,-0.017,0.015
558.899,-0.0175,0.0155
559,-0.017,0.015
559.1,-0.017,0.0145
559.2,-0.017,0.014
559.299,-0.017,0.013
559.399,-0.0165,0.014
559.5,-0.0165,0.0135
559.6,-0.017,0.0135
559.7,-0.017,0.013
559.799,-0.017,0.013
559.9,-0.017,0.013
560,-0.017,0.0125
560.101,-0.0165,0.012
560.2,-0.0165,0.012
560.3,-0.017,0.0125
560.399,-0.017,0.012
560.499,-0.017,0.012
560.599,-0.017,0.0125
560.7,-0.017,0.0125
560.8,-0.017,0.0125
560.901,-0.0165,0.0125
561,-0.017,0.013
561.1,-0.017,0.013
561.2,-0.017,0.0135
561.299,-0.017,0.0135
561.4,-0.017,0.014
561.499,-0.017,0.014
561.6,-0.017,0.0145
561.7,-0.017,0.015
561.8,-0.017,0.015
561.9,-0.017,0.0155
561.999,-0.017,0.0155
562.099,-0.017,0.016
562.2,-0.017,0.016
562.3,-0.017,0.0165
562.4,-0.017,0.017
562.499,-0.017,0.017
562.6,-0.017,0.0175
562.699,-0.017,0.0175
562.8,-0.017,0.018
562.901,-0.0165,0.0175
563,-0.017,0.018
563.101,-0.0165,0.0175
563.2,-0.0165,0.0175
563.3,-0.017,0.018
563.4,-0.017,0.018
563.5,-0.017,0.018
563.6,-0.017,0.018
563.7,-0.0165,0.018
563.801,-0.0165,0.0175
563.9,-0.017,0.0175
564,-0.017,0.0175
564.1,-0.017,0.0175
564.2,-0.017,0.018
564.301,-0.0165,0.0175
564.4,-0.017,0.018
564.5,-0.017,0.018
564.601,-0.0165,0.0175
564.7,-0.017,0.018
564.8,-0.017,0.018
564.9,-0.017,0.018
565,-0.017,0.018
565.1,-0.0165,0.018
565.199,-0.0175,0.018
565.299,-0.017,0.018
565.4,-0.017,0.0175
565.5,-0.017,0.0175
565.6,-0.0165,0.0175
565.7,-0.017,0.017
565.8,-0.0165,0.0165
565.899,-0.017,0.0165
566,-0.017,0.0165
566.1,-0.017,0.016
566.199,-0.017,0.016
566.3,-0.017,0.015
566.399,-0.017,0.015
566.5,-0.017,0.0145
566.6,-0.017,0.014
566.7,-0.0165,0.0135
566.799,-0.0175,0.0135
566.899,-0.017,0.013
566.999,-0.017,0.0125
567.1,-0.017,0.0125
567.2,-0.0165,0.0125
567.3,-0.0165,0.012
567.401,-0.0165,0.012
567.5,-0.0165,0.0115
567.6,-0.017,0.012
567.699,-0.017,0.012
567.799,-0.017,0.012
567.9,-0.0165,0.0115
568,-0.0165,0.0115
568.099,-0.017,0.012
568.2,-0.016,0.0115
568.3,-0.018,0.0115
568.4,-0.0175,0.0115
568.499,-0.0165,0.012
568.6,-0.0165,0.012
568.7,-0.016,0.012
568.799,-0.0165,0.012
568.9,-0.0165,0.012
569.001,-0.0165,0.012
569.1,-0.017,0.0125
569.2,-0.0165,0.0125
569.301,-0.0165,0.0125
569.4,-0.017,0.013
569.5,-0.0165,0.0125
569.6,-0.0165,0.013
569.7,-0.0165,0.013
569.8,-0.0165,0.013
569.9,-0.0165,0.013
570,-0.0165,0.0135
570.101,-0.0165,0.013
570.201,-0.0165,0.0135
570.3,-0.017,0.0135
570.4,-0.017,0.0135
570.5,-0.017,0.0135
570.6,-0.017,0.0135
570.7,-0.017,0.014
570.8,-0.017,0.014
570.899,-0.017,0.0145
571,-0.017,0.014
571.1,-0.017,0.0135
571.201,-0.0165,0.014
571.3,-0.017,0.014
571.4,-0.017,0.0145
571.501,-0.0165,0.0145
571.6,-0.017,0.0145
571.7,-0.017,0.0145
571.8,-0.017,0.0145
571.9,-0.017,0.0145
572,-0.017,0.0145
572.101,-0.0165,0.0145
572.2,-0.017,0.0145
572.3,-0.017,0.0145
572.399,-0.0175,0.015
572.501,-0.0165,0.014
572.601,-0.0165,0.0145
572.701,-0.0165,0.014
572.8,-0.017,0.0145
572.9,-0.017,0.0145
573,-0.017,0.0145
573.1,-0.017,0.0145
573.199,-0.0175,0.015
573.299,-0.0175,0.015
573.399,-0.0175,0.0145
573.499,-0.017,0.0145
573.6,-0.017,0.014
573.7,-0.017,0.014
573.8,-0.017,0.0145
573.9,-0.017,0.014
574,-0.017,0.014
574.1,-0.0165,0.014
574.2,-0.017,0.014
574.301,-0.0165,0.0135
574.401,-0.0165,0.013
574.5,-0.0165,0.0135
574.6,-0.0165,0.0135
574.699,-0.017,0.014
574.799,-0.017,0.014
574.9,-0.017,0.014
575.001,-0.0165,0.0135
575.1,-0.0165,0.013
575.199,-0.017,0.014
575.3,-0.017,0.0135
575.4,-0.017,0.0135
575.501,-0.0165,0.013
575.6,-0.017,0.0135
575.7,-0.017,0.0135
575.8,-0.017,0.0135
575.899,-0.017,0.0135
575.999,-0.017,0.0135
576.1,-0.017,0.0135
576.199,-0.0175,0.0135
576.299,-0.017,0.0135
576.4,-0.017,0.0135
576.499,-0.0175,0.0135
576.599,-0.017,0.0135
576.7,-0.017,0.013
576.8,-0.017,0.013
576.901,-0.0165,0.0125
577,-0.017,0.013
577.1,-0.017,0.013
577.2,-0.0175,0.013
577.299,-0.0175,0.014
577.399,-0.0175,0.0135
577.499,-0.017,0.0125
577.6,-0.0175,0.0125
577.699,-0.017,0.012
577.799,-0.017,0.012
577.9,-0.016,0.0115
578,-0.017,0.012
578.1,-0.017,0.012
578.2,-0.017,0.012
578.3,-0.017,0.012
578.399,-0.0175,0.0125
578.5,-0.017,0.012
578.6,-0.0175,0.012
578.701,-0.016,0.0115
578.8,-0.017,0.012
578.9,-0.0175,0.0115
579,-0.0175,0.0115
579.1,-0.017,0.0115
579.2,-0.0175,0.0115
579.299,-0.0175,0.0115
579.4,-0.0175,0.0115
579.5,-0.0175,0.011
579.6,-0.0175,0.011
579.7,-0.017,0.011
579.801,-0.0165,0.0105
579.9,-0.017,0.0105
580,-0.0165,0.01
580.099,-0.0175,0.0105
580.2,-0.0175,0.0105
580.301,-0.0175,0.01
580.4,-0.0175,0.0105
580.5,-0.0165,0.01
580.6,-0.0175,0.01
580.7,-0.0175,0.0095
580.8,-0.0175,0.01
580.9,-0.0175,0.0095
581,-0.0175,0.0095
581.099,-0.0175,0.01
581.199,-0.0175,0.01
581.299,-0.017,0.0085
581.4,-0.0175,0.0085
581.5,-0.0175,0.0085
581.6,-0.0175,0.008
581.7,-0.0175,0.008
581.8,-0.0175,0.0075
581.9,-0.0175,0.007
581.999,-0.0175,0.007
582.1,-0.0175,0.0065
582.201,-0.0165,0.006
582.3,-0.0175,0.0065
582.4,-0.0175,0.006
582.5,-0.0175,0.0055
582.6,-0.0175,0.0055
582.699,-0.0175,0.005
582.8,-0.0175,0.0055
582.9,-0.0175,0.0055
583.001,-0.0165,0.005
583.1,-0.0175,0.005
583.199,-0.0175,0.006
583.3,-0.0175,0.0045
583.4,-0.0175,0.0045
583.499,-0.0175,0.004
583.599,-0.018,0.005
583.7,-0.0175,0.004
583.8,-0.0165,0.003
583.9,-0.0175,0.0035
584,-0.0175,0.003
584.1,-0.0175,0.003
584.2,-0.0175,0.003
584.299,-0.0175,0.0015
584.4,-0.017,0.002
584.5,-0.0175,0.0025
584.599,-0.0175,0.002
584.699,-0.018,0.003
584.801,-0.0175,0.001
584.9,-0.0175,0.001
584.999,-0.0175,0.001
585.1,-0.0175,0
585.2,-0.0175,0
585.3,-0.0175,0
585.4,-0.0175,-0.0005
585.501,-0.018,-0.0015
585.6,-0.0175,-0.0015
585.7,-0.0175,-0.002
585.801,-0.0175,-0.003
585.9,-0.0175,-0.0025
586,-0.0175,-0.003
586.101,-0.017,-0.0035
586.201,-0.018,-0.004
586.3,-0.0175,-0.0035
586.4,-0.0175,-0.004
586.5,-0.0175,-0.004
586.601,-0.016,-0.0045
586.7,-0.0175,-0.004
586.801,-0.016,-0.005
586.9,-0.017,-0.0045
587,-0.0175,-0.0045
587.1,-0.0175,-0.0045
587.201,-0.017,-0.005
587.299,-0.0175,-0.006
587.4,-0.0175,-0.0045
587.5,-0.0175,-0.0045
587.6,-0.0175,-0.004
587.701,-0.0175,-0.0045
587.8,-0.0175,-0.004
587.9,-0.0175,-0.0035
587.999,-0.0175,-0.0035
588.1,-0.0175,-0.0035
588.2,-0.017,-0.003
588.3,-0.0175,-0.003
588.4,-0.0175,-0.003
588.5,-0.0175,-0.0025
588.599,-0.0175,-0.003
588.699,-0.018,-0.0025
588.799,-0.0175,-0.0025
588.9,-0.0175,-0.0025
589.001,-0.017,-0.0035
589.1,-0.0175,-0.0025
589.199,-0.0175,-0.0025
589.301,-0.017,-0.0035
589.4,-0.017,-0.003
589.5,-0.0175,-0.0025
589.6,-0.0175,-0.0025
589.699,-0.0175,-0.0025
589.8,-0.0175,-0.003
589.9,-0.0175,-0.003
590,-0.0175,-0.003
590.1,-0.017,-0.003
590.2,-0.017,-0.0035
590.3,-0.0175,-0.003
590.4,-0.0175,-0.003
590.5,-0.017,-0.0035
590.6,-0.017,-0.0035
590.7,-0.017,-0.0035
590.799,-0.0175,-0.003
590.9,-0.0175,-0.0035
591,-0.0175,-0.0035
591.099,-0.0175,-0.003
591.2,-0.0175,-0.004
591.299,-0.017,-0.004
591.4,-0.0175,-0.004
591.5,-0.017,-0.004
591.599,-0.0175,-0.0035
591.7,-0.0175,-0.004
591.801,-0.017,-0.0045
591.901,-0.017,-0.0045
592,-0.017,-0.004
592.1,-0.017,-0.004
592.2,-0.0175,-0.0045
592.3,-0.017,-0.0045
592.4,-0.017,-0.0045
592.5,-0.017,-0.0045
592.601,-0.017,-0.0045
592.7,-0.0175,-0.0045
592.8,-0.0175,-0.0045
592.899,-0.0175,-0.0045
593,-0.017,-0.0045
593.1,-0.017,-0.005
593.2,-0.0175,-0.0045
593.3,-0.017,-0.0045
593.4,-0.017,-0.0055
593.5,-0.0165,-0.0045
593.6,-0.0185,-0.005
593.7,-0.018,-0.0045
593.8,-0.017,-0.005
593.9,-0.017,-0.005
594,-0.0165,-0.0045
594.1,-0.0185,-0.005
594.2,-0.0165,-0.005
594.3,-0.018,-0.0045
594.4,-0.0165,-0.005
594.501,-0.017,-0.005
594.6,-0.0165,-0.005
594.7,-0.0165,-0.0045
594.8,-0.0185,-0.005
594.9,-0.018,-0.005
594.999,-0.0175,-0.0045
595.1,-0.017,-0.005
595.199,-0.0175,-0.0045
595.3,-0.0165,-0.005
595.399,-0.0175,-0.0045
595.5,-0.0165,-0.005
595.599,-0.0175,-0.0045
595.7,-0.018,-0.005
595.8,-0.017,-0.005
595.9,-0.017,-0.005
595.999,-0.017,-0.005
596.1,-0.0175,-0.007
596.199,-0.0165,-0.005
596.3,-0.0175,-0.0055
596.399,-0.0175,-0.005
596.5,-0.0165,-0.0055
596.599,-0.0175,-0.0055
596.7,-0.0175,-0.0055
596.8,-0.0165,-0.007
596.901,-0.017,-0.0065
597,-0.017,-0.006
597.1,-0.018,-0.0055
597.2,-0.0165,-0.006
597.3,-0.017,-0.006
597.4,-0.0165,-0.006
597.5,-0.017,-0.006
597.6,-0.018,-0.006
597.701,-0.017,-0.0065
597.8,-0.0165,-0.006
597.9,-0.017,-0.006
598,-0.018,-0.0065
598.1,-0.018,-0.006
598.2,-0.0165,-0.006
598.3,-0.018,-0.006
598.4,-0.018,-0.008
598.5,-0.0175,-0.0065
598.6,-0.018,-0.0065
598.7,-0.018,-0.0065
598.8,-0.0165,-0.007
598.9,-0.0165,-0.007
599,-0.017,-0.0075
599.1,-0.0185,-0.0075
599.201,-0.017,-0.008
599.3,-0.0185,-0.0075
599.399,-0.0165,-0.008
599.5,-0.018,-0.008
599.6,-0.0165,-0.008
599.7,-0.0175,-0.008
599.799,-0.0175,-0.0075
599.899,-0.018,-0.0075
599.999,-0.0175,-0.0075
600.1,-0.017,-0.008
600.201,-0.017,-0.009
600.3,-0.018,-0.0085
600.4,-0.0165,-0.0085
600.5,-0.018,-0.0085
600.599,-0.0175,-0.008
600.7,-0.0165,-0.008
600.8,-0.0185,-0.0085
600.9,-0.017,-0.0085
600.999,-0.0175,-0.0075
601.1,-0.017,-0.0085
601.2,-0.0175,-0.0085
601.3,-0.018,-0.0085
601.4,-0.0165,-0.0085
601.499,-0.0175,-0.0085
601.6,-0.0175,-0.01
601.699,-0.0175,-0.0085
601.8,-0.017,-0.0085
601.9,-0.017,-0.0085
602,-0.017,-0.0095
602.1,-0.0185,-0.009
602.2,-0.0175,-0.0095
602.3,-0.0165,-0.009
602.4,-0.0165,-0.0095
602.5,-0.0175,-0.0095
602.6,-0.0175,-0.0095
602.699,-0.018,-0.01
602.8,-0.0175,-0.0105
602.9,-0.018,-0.01
603,-0.018,-0.0105
603.1,-0.0175,-0.01
603.201,-0.017,-0.0105
603.301,-0.0175,-0.011
603.4,-0.0175,-0.0105
603.5,-0.017,-0.0105
603.599,-0.0175,-0.01
603.7,-0.0175,-0.011
603.8,-0.017,-0.0115
603.9,-0.017,-0.0105
603.999,-0.0175,-0.011
604.1,-0.0175,-0.011
604.199,-0.018,-0.01
604.3,-0.0175,-0.011
604.4,-0.0175,-0.011
604.501,-0.017,-0.0115
604.6,-0.017,-0.011
604.7,-0.0175,-0.0105
604.8,-0.0175,-0.0105
604.9,-0.0175,-0.0115
605,-0.017,-0.0115
605.099,-0.0175,-0.0105
605.2,-0.0175,-0.0105
605.3,-0.0175,-0.0105
605.4,-0.0175,-0.0105
605.499,-0.018,-0.0105
605.599,-0.018,-0.011
605.7,-0.0175,-0.0105
605.8,-0.018,-0.0105
605.9,-0.0175,-0.0105
605.999,-0.018,-0.0095
606.099,-0.018,-0.011
606.2,-0.0175,-0.0105
606.299,-0.018,-0.01
606.4,-0.018,-0.011
606.5,-0.018,-0.011
606.6,-0.018,-0.011
606.699,-0.018,-0.01
606.799,-0.018,-0.011
606.9,-0.0175,-0.012
607,-0.018,-0.011
607.099,-0.0185,-0.0105
607.2,-0.018,-0.011
607.3,-0.018,-0.011
607.4,-0.018,-0.011
607.5,-0.0175,-0.0115
607.6,-0.018,-0.011
607.7,-0.018,-0.011
607.8,-0.018,-0.011
607.9,-0.018,-0.011
608,-0.018,-0.0105
608.1,-0.018,-0.0105
608.2,-0.018,-0.012
608.301,-0.018,-0.0115
608.4,-0.018,-0.012
608.5,-0.0185,-0.011
608.6,-0.0185,-0.0115
608.701,-0.018,-0.012
608.801,-0.018,-0.0125
608.9,-0.0185,-0.012
609,-0.018,-0.012
609.1,-0.0185,-0.012
609.2,-0.018,-0.013
609.3,-0.0185,-0.0125
609.4,-0.018,-0.013
609.5,-0.0185,-0.0125
609.6,-0.0185,-0.013
609.7,-0.0185,-0.013
609.799,-0.019,-0.013
609.899,-0.0185,-0.013
610,-0.0185,-0.0125
610.1,-0.0185,-0.013
610.201,-0.0185,-0.0125
610.301,-0.018,-0.0125
610.4,-0.0185,-0.013
610.501,-0.0185,-0.0125
610.601,-0.0185,-0.015
610.7,-0.0185,-0.0135
610.8,-0.019,-0.0135
610.899,-0.019,-0.0135
611,-0.0185,-0.0135
611.099,-0.019,-0.013
611.199,-0.0185,-0.013
611.3,-0.0185,-0.013
611.401,-0.0185,-0.013
611.5,-0.019,-0.0135
611.601,-0.0185,-0.0135
611.7,-0.019,-0.013
611.8,-0.019,-0.0135
611.9,-0.0185,-0.0135
612,-0.019,-0.0135
612.1,-0.019,-0.0135
612.199,-0.019,-0.0145
612.299,-0.019,-0.0145
612.4,-0.019,-0.014
612.5,-0.019,-0.014
612.601,-0.0185,-0.014
612.7,-0.019,-0.014
612.801,-0.0185,-0.014
612.9,-0.019,-0.0145
612.999,-0.019,-0.0145
613.1,-0.019,-0.0145
613.199,-0.0195,-0.0155
613.3,-0.019,-0.0145
613.4,-0.019,-0.0145
613.499,-0.019,-0.015
613.599,-0.019,-0.015
613.7,-0.019,-0.015
613.799,-0.0195,-0.016
613.899,-0.019,-0.016
614,-0.019,-0.0155
614.1,-0.019,-0.015
614.199,-0.019,-0.015
614.299,-0.019,-0.016
614.4,-0.019,-0.016
614.5,-0.019,-0.0155
614.6,-0.019,-0.016
614.7,-0.019,-0.016
614.801,-0.019,-0.016
614.901,-0.019,-0.016
615,-0.019,-0.0165
615.1,-0.019,-0.0165
615.2,-0.0195,-0.0165
615.3,-0.019,-0.017
615.4,-0.0195,-0.017
615.499,-0.0195,-0.017
615.599,-0.0195,-0.017
615.7,-0.019,-0.0165
615.8,-0.0195,-0.0175
615.899,-0.02,-0.018
615.999,-0.0195,-0.0185
616.1,-0.019,-0.0175
616.2,-0.0195,-0.0175
616.3,-0.019,-0.0175
616.399,-0.0195,-0.0185
616.499,-0.0195,-0.0175
616.6,-0.0195,-0.0175
616.699,-0.02,-0.0185
616.799,-0.02,-0.0185
616.899,-0.0195,-0.018
616.999,-0.0195,-0.018
617.099,-0.0195,-0.018
617.199,-0.0195,-0.018
617.3,-0.0195,-0.018
617.401,-0.019,-0.0175
617.5,-0.0195,-0.0185
617.6,-0.0195,-0.0185
617.7,-0.019,-0.0185
617.8,-0.019,-0.018
617.899,-0.0195,-0.019
618,-0.0195,-0.019
618.1,-0.0195,-0.019
618.2,-0.0195,-0.0185
618.3,-0.0195,-0.019
618.399,-0.02,-0.0195
618.499,-0.02,-0.0195
618.6,-0.02,-0.019
618.699,-0.02,-0.02
618.799,-0.02,-0.02
618.9,-0.0195,-0.019
619,-0.0195,-0.019
619.099,-0.02,-0.02
619.2,-0.0195,-0.019
619.3,-0.0195,-0.019
619.4,-0.0195,-0.019
619.5,-0.0195,-0.0185
619.6,-0.0195,-0.019
619.7,-0.0195,-0.019
619.8,-0.0195,-0.019
619.901,-0.0195,-0.0185
620,-0.0195,-0.019
620.1,-0.02,-0.019
620.2,-0.02,-0.019
620.3,-0.02,-0.019
620.401,-0.0195,-0.018
620.5,-0.0195,-0.019
620.601,-0.0195,-0.018
620.7,-0.02,-0.019
620.8,-0.0195,-0.019
620.899,-0.02,-0.0195
621,-0.02,-0.019
621.099,-0.02,-0.0195
621.2,-0.02,-0.019
621.3,-0.0195,-0.018
621.4,-0.02,-0.0185
621.5,-0.02,-0.0185
621.6,-0.02,-0.019
621.7,-0.02,-0.0185
621.8,-0.02,-0.0185
621.899,-0.02,-0.0195
621.999,-0.02,-0.02
622.1,-0.02,-0.019
622.199,-0.02,-0.02
622.299,-0.02,-0.02
622.399,-0.02,-0.019
622.499,-0.02,-0.019
622.599,-0.02,-0.0175
622.7,-0.02,-0.019
622.8,-0.02,-0.019
622.9,-0.02,-0.019
622.999,-0.02,-0.02
623.099,-0.02,-0.02
623.199,-0.02,-0.02
623.299,-0.02,-0.019
623.4,-0.02,-0.019
623.5,-0.02,-0.0195
623.6,-0.02,-0.0195
623.699,-0.0205,-0.0205
623.799,-0.0205,-0.0205
623.9,-0.02,-0.019
624.001,-0.0195,-0.0185
624.1,-0.02,-0.019
624.2,-0.02,-0.0195
624.3,-0.02,-0.0175
624.401,-0.0195,-0.0185
624.501,-0.0195,-0.018
624.6,-0.02,-0.019
624.7,-0.02,-0.019
624.8,-0.02,-0.019
624.901,-0.0195,-0.018
625,-0.02,-0.019
625.101,-0.0195,-0.018
625.2,-0.02,-0.019
625.299,-0.02,-0.02
625.4,-0.02,-0.019
625.499,-0.02,-0.02
625.6,-0.02,-0.0185
625.7,-0.02,-0.0185
625.8,-0.02,-0.019
625.9,-0.02,-0.019
625.999,-0.02,-0.019
626.1,-0.02,-0.0185
626.199,-0.02,-0.0185
626.3,-0.02,-0.0185
626.4,-0.02,-0.0185
626.5,-0.02,-0.0185
626.6,-0.02,-0.0185
626.7,-0.02,-0.0185
626.801,-0.0195,-0.018
626.9,-0.02,-0.019
627,-0.02,-0.019
627.1,-0.02,-0.019
627.2,-0.02,-0.019
627.3,-0.02,-0.019
627.401,-0.0195,-0.018
627.5,-0.02,-0.018
627.6,-0.02,-0.019
627.7,-0.02,-0.0185
627.802,-0.0195,-0.017
627.9,-0.02,-0.0185
628,-0.02,-0.0185
628.1,-0.02,-0.0185
628.2,-0.02,-0.0185
628.3,-0.02,-0.0185
628.4,-0.02,-0.0185
628.501,-0.02,-0.0175
628.6,-0.02,-0.0185
628.7,-0.02,-0.0185
628.801,-0.02,-0.0175
628.9,-0.02,-0.018
629,-0.02,-0.0185
629.1,-0.02,-0.018
629.2,-0.02,-0.0185
629.299,-0.0205,-0.018
629.4,-0.02,-0.0185
629.501,-0.02,-0.0175
629.6,-0.02,-0.0185
629.7,-0.02,-0.0185
629.799,-0.02,-0.0195
629.9,-0.02,-0.0185
630,-0.02,-0.0185
630.099,-0.0205,-0.02
630.2,-0.02,-0.019
630.299,-0.0205,-0.02
630.4,-0.02,-0.019
630.5,-0.02,-0.019
630.599,-0.02,-0.019
630.7,-0.02,-0.019
630.8,-0.02,-0.019
630.899,-0.0205,-0.02
630.999,-0.02,-0.019
631.1,-0.02,-0.019
631.2,-0.02,-0.019
631.3,-0.02,-0.019
631.4,-0.02,-0.0195
631.5,-0.02,-0.019
631.601,-0.0195,-0.0185
631.7,-0.02,-0.019
631.799,-0.02,-0.02
631.9,-0.02,-0.019
632,-0.0195,-0.0185
632.1,-0.02,-0.019
632.2,-0.02,-0.019
632.3,-0.02,-0.019
632.399,-0.02,-0.019
632.5,-0.02,-0.019
632.599,-0.02,-0.02
632.7,-0.02,-0.019
632.799,-0.0205,-0.02
632.899,-0.02,-0.019
633,-0.02,-0.019
633.1,-0.02,-0.019
633.2,-0.02,-0.019
633.3,-0.02,-0.019
633.4,-0.02,-0.019
633.5,-0.02,-0.019
633.6,-0.02,-0.019
633.699,-0.0205,-0.02
633.8,-0.02,-0.019
633.899,-0.02,-0.02
633.999,-0.02,-0.02
634.099,-0.02,-0.02
634.2,-0.0195,-0.019
634.3,-0.0195,-0.019
634.4,-0.0195,-0.019
634.5,-0.0195,-0.019
634.6,-0.0195,-0.019
634.7,-0.0195,-0.0185
634.8,-0.0195,-0.0185
634.899,-0.02,-0.019
635,-0.02,-0.019
635.099,-0.02,-0.0195
635.2,-0.0195,-0.019
635.3,-0.0195,-0.019
635.401,-0.0195,-0.0185
635.5,-0.02,-0.019
635.599,-0.0195,-0.019
635.7,-0.0195,-0.019
635.8,-0.0195,-0.019
635.9,-0.0195,-0.019
636.001,-0.0195,-0.018
636.101,-0.0195,-0.018
636.201,-0.0195,-0.018
636.3,-0.0195,-0.0185
636.4,-0.019,-0.0175
636.5,-0.0195,-0.0185
636.601,-0.0195,-0.018
636.701,-0.0195,-0.018
636.8,-0.0195,-0.0185
636.9,-0.0195,-0.0185
637,-0.0195,-0.0185
637.1,-0.0195,-0.0185
637.2,-0.0195,-0.0185
637.3,-0.0195,-0.018
637.4,-0.0195,-0.018
637.5,-0.0195,-0.018
637.599,-0.0195,-0.0185
637.7,-0.0195,-0.018
637.799,-0.02,-0.0185
637.899,-0.0195,-0.018
638,-0.0195,-0.018
638.1,-0.0195,-0.0175
638.199,-0.0195,-0.0175
638.3,-0.019,-0.0175
638.4,-0.0195,-0.0175
638.499,-0.0195,-0.018
638.6,-0.0195,-0.0175
638.7,-0.0195,-0.0175
638.8,-0.0195,-0.0175
638.899,-0.0195,-0.018
639,-0.0195,-0.0175
639.1,-0.019,-0.0175
639.2,-0.0195,-0.0175
639.301,-0.019,-0.0175
639.4,-0.019,-0.0175
639.5,-0.0195,-0.0175
639.6,-0.0195,-0.017
639.7,-0.0195,-0.0175
639.8,-0.0195,-0.0175
639.9,-0.019,-0.0175
640,-0.019,-0.0175
640.101,-0.019,-0.017
640.2,-0.0195,-0.0175
640.301,-0.0185,-0.017
640.4,-0.019,-0.0175
640.5,-0.019,-0.0175
640.601,-0.0185,-0.0185
640.7,-0.019,-0.0175
640.8,-0.019,-0.0175
640.899,-0.019,-0.0175
640.999,-0.019,-0.0175
641.099,-0.019,-0.0175
641.2,-0.019,-0.0175
641.299,-0.0195,-0.0175
641.4,-0.019,-0.0175
641.499,-0.0195,-0.0175
641.6,-0.019,-0.018
641.7,-0.019,-0.0175
641.8,-0.019,-0.017
641.9,-0.019,-0.017
642,-0.019,-0.018
642.1,-0.019,-0.0175
642.2,-0.019,-0.0185
642.3,-0.019,-0.017
642.4,-0.019,-0.0195
642.5,-0.0185,-0.0185
642.6,-0.019,-0.0185
642.7,-0.019,-0.0185
642.799,-0.019,-0.018
642.899,-0.019,-0.018
642.999,-0.019,-0.018
643.1,-0.0185,-0.0185
643.2,-0.0185,-0.0185
643.3,-0.0185,-0.0185
643.4,-0.0185,-0.0185
643.5,-0.019,-0.0195
643.6,-0.0195,-0.0195
643.7,-0.0185,-0.019
643.8,-0.0185,-0.019
643.899,-0.019,-0.0175
644,-0.0185,-0.019
644.099,-0.019,-0.02
644.199,-0.019,-0.018
644.3,-0.0185,-0.019
644.401,-0.019,-0.02
644.5,-0.0185,-0.019
644.601,-0.018,-0.02
644.7,-0.0185,-0.019
644.799,-0.019,-0.0185
644.9,-0.0185,-0.019
644.999,-0.0185,-0.0195
645.1,-0.0185,-0.0195
645.199,-0.018,-0.0195
645.3,-0.0185,-0.0195
645.401,-0.018,-0.022
645.5,-0.0185,-0.0195
645.6,-0.0185,-0.0195
645.7,-0.018,-0.0195
645.8,-0.018,-0.0195
645.9,-0.019,-0.0195
646,-0.018,-0.0195
646.1,-0.018,-0.0195
646.2,-0.018,-0.0195
646.301,-0.018,-0.0205
646.401,-0.018,-0.0205
646.501,-0.018,-0.0205
646.6,-0.0175,-0.0195
646.7,-0.018,-0.02
646.801,-0.018,-0.0205
646.9,-0.0185,-0.021
647,-0.018,-0.02
647.099,-0.0185,-0.019
647.2,-0.018,-0.02
647.3,-0.018,-0.02
647.4,-0.018,-0.02
647.499,-0.0185,-0.0195
647.599,-0.0185,-0.0195
647.699,-0.0185,-0.0195
647.799,-0.0185,-0.0195
647.9,-0.018,-0.0205
647.999,-0.018,-0.0195
648.1,-0.018,-0.02
648.2,-0.018,-0.02
648.301,-0.0185,-0.0215
648.4,-0.018,-0.0205
648.5,-0.018,-0.02
648.6,-0.0185,-0.021
648.7,-0.018,-0.02
648.8,-0.018,-0.02
648.9,-0.018,-0.02
649,-0.018,-0.02
649.1,-0.018,-0.02
649.2,-0.018,-0.02
649.3,-0.0185,-0.0215
649.4,-0.018,-0.02
649.499,-0.0175,-0.0195
649.6,-0.018,-0.02
649.7,-0.018,-0.02
649.8,-0.018,-0.02
649.901,-0.0185,-0.0215
650,-0.018,-0.02
