Zeit t / s,Spannung U_A1 / V,Spannung U_B1 / V
0,0.19605,0.00225
0.1,0.198,-0.0121
0.201,0.19905,-0.0286
0.301,0.19815,-0.01465
0.4,0.19815,-0.01515
0.5,0.19815,-0.01555
0.601,0.1983,-0.0322
0.7,0.19875,-0.0179
0.8,0.19845,-0.01935
0.9,0.1986,-0.02055
1.001,0.1986,-0.03525
1.1,0.19995,-0.0226
1.201,0.19875,-0.0372
1.3,0.19995,-0.02485
1.4,0.19965,-0.026
1.501,0.19845,-0.03915
1.6,0.19905,-0.0282
1.7,0.1989,-0.0287
1.8,0.19845,-0.03035
1.9,0.19845,-0.0427
2.001,0.19845,-0.04315
2.1,0.19845,-0.01815
2.2,0.1983,-0.0341
2.301,0.1989,-0.045
2.4,0.19815,-0.03515
2.501,0.19905,-0.0467
2.6,0.1986,-0.0374
2.7,0.1986,-0.03765
2.801,0.19935,-0.048
2.9,0.19845,-0.03895
2.999,0.1995,-0.0268
3.1,0.19845,-0.04055
3.2,0.1983,-0.04155
3.3,0.1983,-0.04215
3.4,0.1983,-0.04325
3.499,0.19845,-0.032
3.6,0.19875,-0.04455
3.7,0.1986,-0.0443
3.8,0.19905,-0.0452
3.9,0.19905,-0.04565
4,0.1992,-0.0465
4.1,0.1992,-0.04695
4.2,0.1986,-0.0375
4.3,0.19845,-0.0385
4.4,0.19905,-0.04795
4.5,0.19905,-0.04915
4.6,0.1983,-0.0405
4.7,0.1986,-0.0492
4.8,0.19845,-0.05055
4.9,0.19845,-0.05115
5,0.198,-0.051
5.101,0.1932,-0.0571
5.201,0.1926,-0.0567
5.301,0.19725,-0.0528
5.401,0.19695,-0.05295
5.5,0.1965,-0.0537
5.6,0.19605,-0.05355
5.7,0.19605,-0.05395
5.801,0.1953,-0.05415
5.9,0.19485,-0.05535
6.001,0.19485,-0.05575
6.1,0.1944,-0.05635
6.201,0.18975,-0.05895
6.3,0.19395,-0.0569
6.4,0.1938,-0.05695
6.5,0.19365,-0.0578
6.6,0.19335,-0.0579
6.7,0.1932,-0.06075
6.8,0.192,-0.0656
6.9,0.19185,-0.0603
7.001,0.1917,-0.0708
7.1,0.19155,-0.0709
7.2,0.19155,-0.06805
7.3,0.19335,-0.0876
7.401,0.19125,-0.086
7.5,0.1932,-0.08705
7.6,0.19305,-0.08555
7.7,0.19275,-0.08695
7.801,0.1902,-0.0796
7.9,0.1926,-0.0849
8,0.19155,-0.08445
8.1,0.1911,-0.0848
8.2,0.19155,-0.0853
8.3,0.1914,-0.08585
8.401,0.18945,-0.0747
8.5,0.19125,-0.08555
8.601,0.19005,-0.0743
8.7,0.19065,-0.0862
8.8,0.1905,-0.08575
8.901,0.18975,-0.06535
9.001,0.19155,-0.0863
9.1,0.1884,-0.06885
9.2,0.18825,-0.064
9.3,0.18885,-0.0658
9.4,0.1878,-0.0663
9.5,0.1875,-0.05035
9.601,0.18765,-0.04185
9.701,0.1872,-0.0533
9.801,0.18735,-0.05395
9.9,0.1866,-0.0436
9.999,0.1878,-0.0566
10.1,0.18675,-0.05105
10.199,0.1884,-0.0535
10.3,0.18795,-0.05145
10.399,0.18795,-0.05125
10.5,0.18795,-0.03925
10.6,0.18765,-0.0472
10.701,0.18705,-0.04705
10.8,0.1866,-0.04785
10.899,0.1866,-0.0524
10.999,0.18585,-0.0539
11.1,0.18525,-0.0458
11.2,0.1845,-0.0452
11.3,0.18375,-0.04445
11.4,0.1833,-0.0427
11.499,0.18315,-0.0487
11.599,0.18105,-0.04935
11.7,0.1788,-0.04155
11.801,0.1776,-0.02945
11.9,0.17715,-0.0403
12,0.17595,-0.03985
12.1,0.1746,-0.03905
12.201,0.1737,-0.0259
12.3,0.17265,-0.0379
12.4,0.171,-0.0368
12.5,0.16965,-0.0362
12.601,0.16815,-0.0226
12.7,0.16665,-0.03495
12.801,0.1653,-0.0212
12.9,0.1644,-0.03385
12.999,0.16455,-0.0438
13.1,0.1626,-0.0324
13.2,0.16185,-0.0317
13.301,0.1611,-0.0312
13.4,0.16035,-0.03055
13.501,0.1599,-0.01635
13.602,0.1599,-0.0021
13.7,0.15795,-0.0285
13.8,0.15735,-0.0276
13.901,0.1572,-0.014
14,0.15585,-0.02635
14.1,0.15525,-0.025
14.2,0.15465,-0.02425
14.3,0.15435,-0.0239
14.401,0.15465,-0.0104
14.501,0.15345,-0.0218
14.6,0.1548,0.0054
14.701,0.15225,-0.0215
14.8,0.15225,-0.0195
14.9,0.15165,-0.03295
15,0.1512,-0.0051
15.1,0.1512,-0.0187
15.201,0.15135,-0.00435
15.301,0.15105,-0.0029
15.401,0.15,-0.0179
15.5,0.1491,-0.0154
15.6,0.14925,-0.0156
15.7,0.14865,-0.0156
15.8,0.1485,-0.0131
15.9,0.14805,-0.0144
16,0.1473,-0.0123
16.101,0.1479,0.0017
16.2,0.14685,-0.0113
16.301,0.14745,0.0038
16.401,0.147,0.00505
16.5,0.14595,-0.00955
16.601,0.14565,-0.0088
16.7,0.14535,-0.0085
16.801,0.1458,0.0081
16.9,0.14475,-0.0067
17,0.14445,-0.0059
17.1,0.14415,-0.00485
17.199,0.14295,-0.0183
17.3,0.1428,-0.01795
17.4,0.1434,-0.00325
17.501,0.14355,0.01245
17.6,0.1425,-0.0017
17.7,0.14205,-0.00085
17.8,0.14175,0.0004
17.901,0.14145,0.0008
18,0.14115,0.00155
18.1,0.141,0.0026
18.2,0.1407,0.00345
18.3,0.14055,0.00395
18.4,0.14025,0.005
18.5,0.13995,0.0057
18.599,0.1389,-0.0081
18.7,0.1386,-0.00755
18.8,0.1392,0.00825
18.9,0.13905,0.0088
19.001,0.13905,0.0215
19.1,0.1386,0.00975
19.2,0.13815,0.01095
19.301,0.1383,0.02275
19.4,0.1377,0.0122
19.5,0.1374,0.0129
19.6,0.13695,0.01435
19.7,0.1371,0.0139
19.8,0.13575,0.0014
19.901,0.13635,0.0154
20,0.1362,0.016
20.1,0.1356,0.0177
20.201,0.1359,0.02665
20.3,0.13545,0.01875
20.4,0.13515,0.01915
20.5,0.13485,0.02
20.601,0.135,0.0283
20.7,0.1344,0.02125
20.8,0.1341,0.0217
20.9,0.1338,0.0225
21,0.13365,0.023
21.101,0.13395,0.03035
21.201,0.1338,0.03045
21.3,0.1329,0.02455
21.401,0.13335,0.0312
21.501,0.13305,0.03125
21.6,0.13215,0.02625
21.7,0.132,0.02665
21.8,0.1317,0.02715
21.9,0.1317,0.02755
21.999,0.1311,0.02025
22.1,0.13125,0.0286
22.2,0.1311,0.029
22.3,0.1308,0.02935
22.399,0.13005,0.02305
22.5,0.1305,0.03025
22.6,0.13035,0.03025
22.7,0.13005,0.0308
22.8,0.1299,0.03135
22.9,0.1296,0.03145
22.999,0.12885,0.02645
23.099,0.1287,0.027
23.2,0.12885,0.03255
23.299,0.12825,0.028
23.4,0.1284,0.03325
23.501,0.1287,0.03365
23.601,0.12825,0.0337
23.7,0.1275,0.03005
23.8,0.1278,0.0339
23.9,0.12765,0.03405
24.001,0.12765,0.0325
24.1,0.1272,0.03425
24.2,0.12705,0.0342
24.3,0.1266,0.03415
24.4,0.1266,0.034
24.5,0.1263,0.03415
24.6,0.1257,0.0332
24.7,0.126,0.03385
24.8,0.12585,0.03365
24.9,0.1257,0.0335
25.001,0.12585,0.02595
25.101,0.12525,0.03255
25.2,0.1251,0.0324
25.3,0.1248,0.03195
25.4,0.12465,0.0315
25.5,0.1245,0.0308
25.6,0.12435,0.02945
25.7,0.12405,0.0293
25.8,0.1236,0.0339
25.9,0.12375,0.02815
26,0.12345,0.02675
26.1,0.1233,0.02665
26.201,0.1236,0.01625
26.301,0.123,0.02445
26.401,0.12285,0.0245
26.5,0.1227,0.0237
26.6,0.12255,0.02225
26.7,0.12225,0.02165
26.8,0.1221,0.0212
26.9,0.12195,0.0205
27,0.12195,0.01885
27.1,0.12165,0.01835
27.199,0.1212,0.026
27.299,0.1209,0.02555
27.4,0.1212,0.0152
27.501,0.123,0.00315
27.601,0.12255,0.0017
27.7,0.1209,0.0125
27.799,0.12015,0.0225
27.899,0.12,0.02095
27.999,0.11985,0.02045
28.1,0.12135,0.00935
28.201,0.12255,-0.004
28.301,0.12135,0.00665
28.4,0.1212,0.00525
28.5,0.1212,0.00435
28.601,0.1221,-0.00765
28.701,0.12045,0.00265
28.8,0.1203,0.00175
28.9,0.1203,0.00075
29.001,0.1215,-0.0123
29.101,0.1203,-0.00065
29.2,0.1203,-0.0023
29.3,0.12,-0.0031
29.399,0.11925,0.0079
29.5,0.12015,-0.0044
29.6,0.1194,-0.00595
29.7,0.1203,-0.0069
29.801,0.1212,-0.02005
29.901,0.12255,-0.02265
30,0.11985,-0.0097
30.101,0.1212,-0.0245
30.2,0.11955,-0.01205
30.3,0.1194,-0.01285
30.401,0.11985,-0.02715
30.501,0.1191,-0.0154
30.6,0.1191,-0.0165
30.699,0.1179,-0.0044
30.8,0.1197,-0.0186
30.9,0.11985,-0.0198
31,0.1197,-0.02105
31.1,0.11985,-0.02215
31.201,0.1188,-0.03525
31.3,0.11925,-0.02475
31.4,0.11865,-0.026
31.501,0.1182,-0.03825
31.601,0.1176,-0.02765
31.7,0.1176,-0.02875
31.801,0.1179,-0.03995
31.9,0.1173,-0.03065
32.001,0.1179,-0.04185
32.1,0.11715,-0.0323
32.201,0.1179,-0.0429
32.3,0.117,-0.03405
32.4,0.1167,-0.03515
32.499,0.1173,-0.0239
32.6,0.11655,-0.0246
32.701,0.11625,-0.0372
32.8,0.1161,-0.0383
32.9,0.11595,-0.0392
33,0.11595,-0.0395
33.1,0.1158,-0.0401
33.201,0.1158,-0.0409
33.3,0.11565,-0.04155
33.4,0.11565,-0.0417
33.5,0.1134,-0.04975
33.6,0.1155,-0.0433
33.7,0.1155,-0.04365
33.801,0.11205,-0.0504
33.901,0.11505,-0.0449
34,0.11475,-0.0452
34.1,0.11445,-0.04565
34.2,0.11415,-0.054
34.301,0.11385,-0.0465
34.4,0.1134,-0.04675
34.5,0.1131,-0.0475
34.6,0.1128,-0.04825
34.699,0.1134,-0.04115
34.8,0.11205,-0.0491
34.901,0.1074,-0.0535
35,0.1134,-0.04265
35.1,0.1107,-0.04985
35.2,0.1101,-0.05045
35.301,0.10575,-0.0537
35.4,0.10935,-0.0508
35.5,0.1089,-0.0514
35.601,0.105,-0.05405
35.701,0.10455,-0.0536
35.8,0.1077,-0.0523
35.901,0.10395,-0.0502
36,0.1068,-0.0527
36.1,0.1065,-0.0532
36.2,0.10605,-0.0534
36.3,0.10545,-0.0536
36.4,0.105,-0.0536
36.5,0.1089,-0.0497
36.6,0.10425,-0.0538
36.7,0.1038,-0.05385
36.801,0.1017,-0.0521
36.9,0.10305,-0.0538
37.001,0.10155,-0.0517
37.1,0.10245,-0.05395
37.201,0.10095,-0.05095
37.301,0.10035,-0.0429
37.4,0.10155,-0.05375
37.501,0.10035,-0.05
37.601,0.10035,-0.0499
37.7,0.1005,-0.05345
37.8,0.10035,-0.0532
37.901,0.10035,-0.05305
38,0.1023,-0.0537
38.1,0.0999,-0.05265
38.2,0.09945,-0.05285
38.3,0.0993,-0.05235
38.4,0.0993,-0.05225
38.501,0.099,-0.045
38.6,0.0993,-0.0516
38.7,0.0987,-0.05155
38.801,0.09825,-0.04325
38.9,0.0987,-0.0506
39,0.09855,-0.05025
39.099,0.09915,-0.0532
39.199,0.09855,-0.0535
39.299,0.09825,-0.0532
39.399,0.09825,-0.0528
39.5,0.0975,-0.03885
39.601,0.09675,-0.0381
39.7,0.0975,-0.04775
39.8,0.0975,-0.0523
39.9,0.09705,-0.04665
40,0.09675,-0.04555
40.1,0.0966,-0.0455
40.201,0.09555,-0.03395
40.3,0.09645,-0.04425
40.4,0.09615,-0.0437
40.5,0.09585,-0.0424
40.6,0.0957,-0.0423
40.7,0.09555,-0.04145
40.799,0.09585,-0.05015
40.899,0.096,-0.04915
41,0.09495,-0.0395
41.1,0.0948,-0.0391
41.2,0.09435,-0.03785
41.301,0.0942,-0.02505
41.4,0.0942,-0.0366
41.5,0.09405,-0.03615
41.6,0.09375,-0.0351
41.699,0.0945,-0.0448
41.799,0.0942,-0.0444
41.901,0.0936,-0.0197
42,0.0933,-0.0322
42.1,0.09315,-0.03135
42.2,0.093,-0.0309
42.3,0.09285,-0.0298
42.401,0.0933,-0.01605
42.5,0.09255,-0.02815
42.6,0.0924,-0.02685
42.7,0.0924,-0.0265
42.8,0.0924,-0.0255
42.9,0.0921,-0.0243
43,0.09195,-0.02365
43.1,0.09195,-0.0228
43.2,0.0918,-0.0216
43.301,0.09255,-0.00815
43.4,0.09165,-0.0204
43.501,0.0924,-0.0063
43.601,0.0924,-0.0053
43.701,0.0924,-0.0047
43.801,0.09135,-0.01715
43.9,0.09075,-0.0294
44.001,0.09135,-0.0158
44.1,0.09105,-0.01475
44.2,0.0912,-0.0139
44.299,0.09045,-0.02645
44.4,0.0909,-0.0116
44.5,0.0909,-0.011
44.6,0.09075,-0.01035
44.7,0.09075,-0.0094
44.8,0.09075,-0.00895
44.901,0.09135,0.0075
45.001,0.0915,0.0085
45.1,0.09045,-0.00585
45.201,0.09105,0.0104
45.3,0.0903,-0.0036
45.401,0.0909,0.01175
45.5,0.08985,-0.0015
45.601,0.09075,0.01315
45.7,0.08985,-5E-05
45.8,0.08955,0.0028
45.9,0.08985,0.00155
46,0.0897,0.0039
46.101,0.0903,0.01765
46.2,0.0897,0.00535
46.301,0.09015,0.0193
46.401,0.09,0.02
46.5,0.0897,0.0084
46.601,0.08985,0.021
46.701,0.0897,0.0219
46.801,0.0891,0.0111
46.9,0.08835,-0.00265
47,0.08895,0.0129
47.1,0.08895,0.01355
47.201,0.0888,0.0144
47.3,0.0888,0.01495
47.4,0.0879,0.00195
47.5,0.0885,0.01625
47.601,0.0888,0.02655
47.7,0.08835,0.0181
47.8,0.0885,0.01865
47.901,0.0885,0.0275
48,0.0882,0.01995
48.1,0.08805,0.0208
48.199,0.0876,0.0097
48.3,0.0879,0.02215
48.4,0.08775,0.0224
48.5,0.08775,0.02275
48.6,0.08745,0.0238
48.7,0.0876,0.02325
48.8,0.0873,0.0249
48.9,0.08715,0.02465
49,0.0873,0.02495
49.101,0.0876,0.03135
49.2,0.087,0.02615
49.3,0.08685,0.0268
49.4,0.08685,0.0272
49.501,0.0873,0.0324
49.601,0.0867,0.02815
49.7,0.08625,0.0203
49.8,0.08655,0.02855
49.9,0.0873,0.03395
50,0.0864,0.0291
50.1,0.08625,0.0298
50.2,0.08625,0.03
50.3,0.08625,0.03035
50.401,0.0867,0.0339
50.5,0.0861,0.03075
50.601,0.0864,0.03405
50.7,0.08595,0.03075
50.801,0.0861,0.0343
50.9,0.0855,0.0317
51,0.08565,0.03215
51.1,0.0855,0.0328
51.2,0.0858,0.03425
51.3,0.08535,0.03305
51.4,0.08535,0.03315
51.5,0.0852,0.03345
51.601,0.0855,0.03375
51.7,0.0852,0.0338
51.8,0.08505,0.0338
51.9,0.0849,0.0339
51.999,0.08445,0.0306
52.099,0.0843,0.03085
52.199,0.0843,0.031
52.3,0.0846,0.03405
52.4,0.08445,0.03415
52.5,0.0843,0.03425
52.599,0.08385,0.0322
52.701,0.08445,0.0313
52.801,0.08445,0.0309
52.9,0.084,0.0342
53,0.084,0.0341
53.101,0.08415,0.0296
53.201,0.08415,0.02915
53.3,0.0837,0.0337
53.4,0.0837,0.03365
53.5,0.08355,0.0335
53.599,0.0831,0.0339
53.7,0.0834,0.03325
53.8,0.0834,0.03285
53.901,0.0831,0.03275
54,0.0831,0.0325
54.1,0.08295,0.0323
54.201,0.08295,0.0321
54.3,0.0828,0.03185
54.4,0.08265,0.0313
54.499,0.0822,0.03425
54.599,0.0822,0.03425
54.7,0.0825,0.0299
54.8,0.08235,0.02935
54.901,0.0828,0.0207
55,0.0822,0.0283
55.1,0.0822,0.02805
55.2,0.08205,0.0271
55.3,0.08205,0.0272
55.401,0.08235,0.0173
55.501,0.08235,0.01725
55.6,0.08175,0.0261
55.701,0.08175,0.02515
55.8,0.0816,0.02485
55.9,0.08115,0.03195
56,0.08145,0.0238
56.099,0.081,0.03125
56.2,0.0813,0.02275
56.3,0.0813,0.0216
56.4,0.0813,0.02105
56.499,0.0807,0.02945
56.6,0.081,0.02035
56.7,0.081,0.01945
56.799,0.0804,0.028
56.9,0.081,0.0182
57,0.0807,0.01705
57.1,0.0807,0.01685
57.2,0.0807,0.01585
57.301,0.0825,0.00385
57.4,0.08055,0.015
57.5,0.0804,0.01405
57.6,0.08055,0.0136
57.7,0.0807,0.013
57.8,0.0804,0.01225
57.9,0.0804,0.0111
58,0.08055,0.0113
58.101,0.0822,-0.00075
58.2,0.081,0.01035
58.3,0.081,0.0093
58.4,0.08085,0.00865
58.501,0.0822,-0.00415
58.601,0.0813,0.00735
58.7,0.0813,0.0064
58.799,0.0792,0.01565
58.9,0.0807,0.0045
59,0.0804,0.0038
59.1,0.08055,0.0028
59.2,0.0807,0.00145
59.299,0.07905,0.0128
59.4,0.0804,0.0005
59.5,0.0807,-0.00025
59.601,0.0819,-0.0127
59.7,0.0807,-0.0022
59.8,0.08085,-0.0023
59.9,0.0807,-0.00335
60.001,0.08175,-0.0164
60.101,0.08205,-0.0176
60.201,0.08085,-0.00505
60.301,0.08055,-0.00625
60.4,0.08055,-0.007
60.501,0.0825,-0.021
60.6,0.0807,-0.0084
60.7,0.08055,-0.01015
60.801,0.0822,-0.0236
60.901,0.0819,-0.0245
61,0.0807,-0.0123
61.099,0.0795,-0.0012
61.2,0.0804,-0.01385
61.301,0.08085,-0.02815
61.4,0.08055,-0.0161
61.5,0.08025,-0.0166
61.6,0.0804,-0.0176
61.7,0.0792,-0.00545
61.8,0.08115,-0.01995
61.901,0.08115,-0.0201
62,0.08115,-0.02135
62.1,0.081,-0.0222
62.2,0.08085,-0.0236
62.299,0.0792,-0.0106
62.4,0.07995,-0.02515
62.501,0.07995,-0.02555
62.6,0.07965,-0.0266
62.701,0.0804,-0.0383
62.801,0.0804,-0.03905
62.9,0.07935,-0.0295
62.999,0.07935,-0.01725
63.1,0.0795,-0.0189
63.2,0.07995,-0.03275
63.301,0.081,-0.04375
63.4,0.07995,-0.03515
63.501,0.0801,-0.03595
63.6,0.07995,-0.0366
63.701,0.08055,-0.04635
63.8,0.07995,-0.03765
63.902,0.07605,-0.05385
64,0.0798,-0.03905
64.1,0.07965,-0.0399
64.2,0.07995,-0.0406
64.301,0.07875,-0.0493
64.401,0.0783,-0.05
64.5,0.0798,-0.04265
64.6,0.0798,-0.04275
64.7,0.0795,-0.04305
64.8,0.07935,-0.04335
64.901,0.07605,-0.05055
65.001,0.0789,-0.0447
65.1,0.07875,-0.04505
65.2,0.078,-0.03685
65.3,0.07815,-0.0517
65.399,0.078,-0.0382
65.499,0.07785,-0.0392
65.6,0.07785,-0.0396
65.7,0.0777,-0.04045
65.8,0.0765,-0.0482
65.9,0.0762,-0.0487
66,0.07575,-0.04895
66.1,0.0753,-0.04935
66.201,0.07155,-0.0532
66.301,0.07095,-0.05315
66.4,0.07455,-0.0506
66.5,0.0741,-0.05105
66.601,0.07005,-0.0533
66.7,0.07335,-0.05045
66.8,0.0732,-0.05185
66.9,0.0726,-0.0526
67.001,0.06855,-0.05315
67.1,0.07185,-0.0527
67.2,0.07155,-0.0525
67.3,0.0711,-0.0529
67.4,0.07065,-0.0535
67.5,0.07035,-0.05325
67.601,0.0678,-0.05195
67.701,0.06765,-0.0517
67.8,0.06945,-0.05325
67.901,0.0678,-0.0515
68.001,0.06855,-0.05365
68.101,0.0684,-0.0533
68.2,0.0684,-0.0529
68.3,0.06795,-0.05295
68.4,0.06765,-0.05315
68.5,0.06735,-0.0532
68.601,0.06705,-0.03935
68.7,0.0669,-0.05225
68.801,0.0669,-0.0474
68.9,0.0672,-0.05225
69.001,0.06555,-0.0363
69.101,0.06645,-0.052
69.2,0.06645,-0.0517
69.301,0.0663,-0.0442
69.4,0.06645,-0.0509
69.5,0.06645,-0.0501
69.601,0.06555,-0.0422
69.701,0.0654,-0.0413
69.8,0.06585,-0.0493
69.901,0.06525,-0.0394
70.001,0.06495,-0.03875
70.1,0.066,-0.0478
70.2,0.0654,-0.0471
70.3,0.0654,-0.04675
70.401,0.06435,-0.03585
70.501,0.06435,-0.0344
70.6,0.0651,-0.04415
70.7,0.0648,-0.04325
70.8,0.0645,-0.04245
70.901,0.0639,-0.03115
71,0.06435,-0.0412
71.1,0.06495,-0.0491
71.201,0.06405,-0.0397
71.301,0.0636,-0.02695
71.4,0.06495,-0.0474
71.5,0.06375,-0.03655
71.6,0.06345,-0.0359
71.701,0.0633,-0.0213
71.801,0.0636,-0.0221
71.9,0.06285,-0.03365
72,0.06315,-0.03245
72.101,0.0633,-0.0205
72.2,0.0627,-0.03105
72.301,0.0633,-0.0176
72.4,0.06255,-0.02955
72.501,0.0633,-0.0145
72.6,0.0627,-0.02735
72.7,0.06225,-0.0264
72.8,0.06285,-0.0237
72.9,0.0624,-0.02455
73.001,0.06285,-0.00925
73.1,0.0624,-0.02155
73.2,0.06225,-0.0214
73.3,0.0624,-0.02015
73.401,0.063,-0.0061
73.5,0.06225,-0.01845
73.601,0.06285,-0.00385
73.702,0.0636,0.01195
73.799,0.06165,-0.0285
73.9,0.06195,-0.01495
74,0.0621,-0.01375
74.1,0.0621,-0.01265
74.2,0.06195,-0.01165
74.301,0.0627,0.00405
74.4,0.06195,-0.00975
74.499,0.0612,-0.0215
74.6,0.0612,-0.02045
74.7,0.0621,-0.007
74.801,0.06255,0.00935
74.9,0.0621,-0.0049
75,0.06195,-0.0041
75.1,0.06195,-0.00255
75.201,0.06255,0.01285
75.301,0.0624,0.0137
75.4,0.06165,0.0014
75.5,0.06165,0.002
75.6,0.06105,-0.0118
75.7,0.06195,0.0045
75.8,0.0618,0.0059
75.901,0.06225,0.0186
76.001,0.0618,0.0071
76.1,0.0618,0.0079
76.2,0.06165,0.0094
76.3,0.0609,-0.0044
76.4,0.06165,0.01115
76.5,0.0615,0.012
76.601,0.06165,0.02235
76.7,0.06165,0.0125
76.8,0.0612,0.01495
76.9,0.06135,0.01455
77,0.06135,0.01535
77.101,0.0615,0.0249
77.201,0.0615,0.0255
77.3,0.0612,0.0175
77.402,0.06195,0.0316
77.5,0.06105,0.01945
77.6,0.06105,0.01985
77.7,0.0609,0.0206
77.801,0.06135,0.02795
77.9,0.0609,0.02155
78.001,0.0612,0.02855
78.1,0.06075,0.0224
78.201,0.0606,0.023
78.3,0.0606,0.0235
78.399,0.06045,0.0145
78.5,0.06045,0.0245
78.6,0.06015,0.0157
78.7,0.06045,0.0255
78.801,0.0609,0.03105
78.9,0.0603,0.02645
79.001,0.06075,0.03165
79.1,0.0603,0.0271
79.201,0.06075,0.03195
79.3,0.06015,0.02805
79.399,0.05985,0.021
79.5,0.06015,0.0285
79.601,0.06075,0.03265
79.7,0.06015,0.029
79.8,0.06015,0.02935
79.9,0.06015,0.0297
79.999,0.0594,0.02995
80.1,0.06,0.0302
80.2,0.05985,0.0304
80.301,0.0603,0.03295
80.401,0.0597,0.03075
80.5,0.0597,0.031
80.601,0.06015,0.0328
80.7,0.05955,0.0316
80.8,0.05955,0.03175
80.9,0.05955,0.03225
81,0.05955,0.0321
81.1,0.05955,0.0324
81.2,0.05955,0.0324
81.299,0.0591,0.02615
81.399,0.05895,0.02925
81.5,0.0594,0.03275
81.6,0.0594,0.03155
81.7,0.0594,0.03305
81.8,0.05925,0.0329
81.9,0.05925,0.0329
82.001,0.0594,0.0304
82.1,0.0591,0.0329
82.2,0.0591,0.03295
82.301,0.05895,0.0329
82.4,0.05895,0.0328
82.5,0.0588,0.0327
82.6,0.0588,0.03255
82.7,0.0588,0.03255
82.801,0.0591,0.02705
82.901,0.05955,0.0176
83,0.05865,0.03195
83.1,0.05865,0.0317
83.201,0.05895,0.0254
83.301,0.05895,0.02435
83.4,0.0585,0.0313
83.5,0.05835,0.03095
83.6,0.05835,0.03075
83.701,0.0588,0.02285
83.801,0.05865,0.0229
83.9,0.0582,0.02985
84.002,0.05955,0.0106
84.1,0.05805,0.0287
84.201,0.0585,0.02045
84.3,0.05805,0.0276
84.401,0.0585,0.01895
84.5,0.05805,0.02655
84.6,0.0579,0.02615
84.701,0.0585,0.0164
84.8,0.0579,0.02505
84.9,0.05775,0.02555
85,0.05775,0.02445
85.1,0.05775,0.0245
85.2,0.0576,0.024
85.3,0.0576,0.02345
85.399,0.05715,0.0306
85.5,0.0576,0.0229
85.601,0.0582,0.0114
85.7,0.05745,0.02135
85.8,0.05745,0.0212
85.901,0.0588,0.0102
86.001,0.0591,0.00915
86.101,0.0573,0.01895
86.2,0.0573,0.0184
86.3,0.05685,0.0266
86.4,0.05715,0.01705
86.5,0.0573,0.0169
86.6,0.05715,0.0157
86.7,0.057,0.0158
86.801,0.05925,0.00395
86.901,0.0588,0.0037
87,0.0573,0.0136
87.099,0.0564,0.0234
87.2,0.057,0.01225
87.3,0.057,0.01255
87.4,0.0573,0.0114
87.5,0.05715,0.0111
87.6,0.05745,0.01015
87.7,0.0573,0.00995
87.8,0.05835,0.0087
87.899,0.05625,0.0185
87.999,0.0561,0.01845
88.1,0.05595,0.01775
88.2,0.05835,0.00645
88.3,0.05775,0.006
88.4,0.05775,0.0052
88.499,0.0561,0.01505
88.6,0.057,0.0039
88.7,0.0576,0.0028
88.799,0.05595,0.0135
88.9,0.0561,0.01295
89,0.0576,0.00125
89.1,0.05715,0.00015
89.2,0.05745,-0.00025
89.3,0.05775,-0.00155
89.401,0.05775,-0.00205
89.5,0.0579,-0.00225
89.6,0.05775,-0.00245
89.7,0.0576,-0.0038
89.8,0.05775,-0.00365
89.9,0.0576,-0.0048
90.001,0.05775,-0.00565
90.1,0.05775,-0.00575
90.2,0.05775,-0.00675
90.3,0.0576,-0.00735
90.401,0.0576,-0.00875
90.5,0.05745,-0.00915
90.6,0.05775,-0.00965
90.701,0.0576,-0.0098
90.8,0.05775,-0.01115
90.899,0.0564,-0.0001
91,0.05775,-0.01195
91.1,0.0576,-0.01335
91.2,0.0576,-0.0135
91.3,0.0576,-0.0144
91.4,0.05775,-0.0155
91.5,0.05775,-0.01635
91.6,0.0579,-0.0167
91.7,0.0579,-0.01795
91.8,0.05805,-0.01865
91.901,0.05805,-0.03195
92,0.05835,-0.02015
92.1,0.0585,-0.021
92.2,0.0585,-0.0214
92.301,0.05835,-0.0221
92.4,0.0582,-0.0346
92.5,0.05805,-0.024
92.599,0.0567,-0.0113
92.699,0.0567,-0.0121
92.8,0.05745,-0.026
92.901,0.0579,-0.03735
93.001,0.05775,-0.0381
93.1,0.05715,-0.02765
93.2,0.057,-0.02845
93.299,0.057,-0.016
93.4,0.05685,-0.02995
93.5,0.05685,-0.0302
93.599,0.05685,-0.01885
93.7,0.057,-0.0317
93.801,0.05805,-0.042
93.901,0.05805,-0.043
94,0.057,-0.0336
94.1,0.05685,-0.03405
94.199,0.05745,-0.0228
94.3,0.05685,-0.03545
94.401,0.05685,-0.03565
94.5,0.057,-0.0363
94.6,0.0561,-0.0365
94.699,0.0564,-0.02735
94.8,0.0561,-0.03705
94.899,0.05505,-0.0277
95,0.057,-0.039
95.1,0.05625,-0.039
95.2,0.05655,-0.0402
95.3,0.0567,-0.04005
95.4,0.0567,-0.04105
95.5,0.05655,-0.0415
95.6,0.0558,-0.0315
95.701,0.05685,-0.0422
95.801,0.0567,-0.0425
95.901,0.05685,-0.04255
96,0.05655,-0.04295
96.1,0.0567,-0.0438
96.2,0.0564,-0.0442
96.3,0.0564,-0.04475
96.4,0.05625,-0.04555
96.501,0.05325,-0.05425
96.601,0.0528,-0.05225
96.7,0.05565,-0.04615
96.801,0.05235,-0.0522
96.901,0.05535,-0.0468
97,0.05535,-0.0476
97.1,0.05505,-0.04795
97.2,0.0549,-0.0484
97.3,0.0546,-0.0482
97.4,0.0543,-0.049
97.499,0.05655,-0.04255
97.6,0.05325,-0.04905
97.7,0.0543,-0.05015
97.8,0.0531,-0.0491
97.9,0.0528,-0.0509
98,0.05355,-0.0509
98.101,0.04875,-0.0541
98.2,0.05235,-0.0514
98.3,0.05205,-0.0514
98.4,0.0519,-0.05195
98.5,0.05175,-0.05235
98.601,0.0513,-0.0525
98.7,0.0513,-0.05265
98.8,0.0507,-0.05335
98.9,0.0504,-0.0538
99,0.05025,-0.05385
99.101,0.04665,-0.05345
99.201,0.0465,-0.0534
99.301,0.04935,-0.05395
99.4,0.0489,-0.0538
99.5,0.0492,-0.05405
99.6,0.0486,-0.0537
99.7,0.0486,-0.0543
99.801,0.048,-0.05395
99.9,0.0507,-0.0517
100.001,0.04815,-0.0543
100.101,0.04695,-0.0541
100.2,0.04695,-0.0542
100.3,0.04695,-0.0541
100.4,0.0465,-0.05385
100.501,0.04575,-0.05045
100.6,0.0465,-0.05365
100.701,0.04515,-0.0501
100.801,0.04545,-0.0494
100.9,0.0456,-0.05365
101,0.04545,-0.0538
101.101,0.04515,-0.0486
101.2,0.0453,-0.05295
101.301,0.04485,-0.0476
101.4,0.0447,-0.0533
101.5,0.04485,-0.05255
101.6,0.0468,-0.0548
101.7,0.0447,-0.0526
101.8,0.0462,-0.0551
101.9,0.0447,-0.05155
102,0.0447,-0.05135
102.1,0.04425,-0.0513
102.201,0.0438,-0.04225
102.3,0.0447,-0.05025
102.4,0.0441,-0.05025
102.5,0.0441,-0.05
102.6,0.04455,-0.0495
102.7,0.0441,-0.0484
102.8,0.0438,-0.04825
102.9,0.04425,-0.04795
103,0.04395,-0.04745
103.1,0.04365,-0.04695
103.2,0.04365,-0.0465
103.301,0.04275,-0.0352
103.4,0.0435,-0.0451
103.499,0.04365,-0.0517
103.6,0.0432,-0.0436
103.7,0.0432,-0.0433
103.8,0.04305,-0.04275
103.9,0.0429,-0.04155
104,0.0435,-0.04995
104.101,0.0426,-0.04055
104.2,0.04245,-0.03965
104.3,0.04245,-0.03925
104.4,0.04245,-0.0384
104.499,0.04335,-0.0479
104.6,0.042,-0.03665
104.7,0.042,-0.03585
104.799,0.04275,-0.0459
104.9,0.042,-0.0349
105,0.04185,-0.0336
105.1,0.04185,-0.03285
105.2,0.0417,-0.0188
105.3,0.04155,-0.03055
105.401,0.04215,-0.01725
105.5,0.04155,-0.0283
105.6,0.04155,-0.028
105.7,0.04155,-0.0264
105.801,0.0423,-0.0135
105.9,0.0414,-0.0242
105.999,0.04125,-0.03675
106.1,0.0414,-0.023
106.2,0.0414,-0.0221
106.301,0.042,-0.0084
106.4,0.0414,-0.0204
106.5,0.0414,-0.01995
106.601,0.04215,-0.0051
106.7,0.04155,-0.0176
106.8,0.0414,-0.0165
106.9,0.0414,-0.0157
107.001,0.0414,-0.01455
107.1,0.04155,-0.01365
107.2,0.0417,-0.01245
107.3,0.04155,-0.0118
107.4,0.0417,-0.01035
107.499,0.04065,-0.0219
107.6,0.04155,-0.008
107.7,0.04065,-0.02
107.8,0.04155,-0.0059
107.9,0.04155,-0.00495
108,0.0408,-0.0175
108.1,0.0414,-0.0019
108.199,0.0408,-0.01515
108.299,0.04095,0.0126
108.4,0.0417,0.00135
108.501,0.04185,0.0026
108.6,0.04185,0.0038
108.7,0.0408,-0.0093
108.8,0.04185,0.00605
108.9,0.0417,0.0076
109.001,0.042,0.0184
109.101,0.042,0.01895
109.2,0.0417,0.00965
109.3,0.0417,0.0109
109.4,0.0417,0.0118
109.5,0.0417,0.0126
109.601,0.042,0.02215
109.7,0.0417,0.0146
109.8,0.04155,0.01555
109.9,0.04155,0.0164
110,0.0414,0.0173
110.101,0.042,0.0246
110.2,0.0414,0.0186
110.3,0.0414,0.0193
110.4,0.04155,0.01995
110.501,0.0414,0.02045
110.6,0.0414,0.0208
110.701,0.04155,0.0215
110.8,0.0411,0.01435
110.9,0.0414,0.02295
111,0.0414,0.0235
111.101,0.042,0.0278
111.201,0.042,0.0278
111.3,0.04155,0.02435
111.4,0.04155,0.0249
111.501,0.04185,0.028
111.601,0.0414,0.02565
111.7,0.0414,0.0259
111.801,0.0414,0.0263
111.9,0.04155,0.0264
112,0.0414,0.02695
112.1,0.0414,0.0271
112.2,0.0414,0.02715
112.3,0.04155,0.02715
112.4,0.0414,0.02735
112.5,0.0414,0.0275
112.6,0.0414,0.0273
112.701,0.0417,0.0252
112.801,0.0417,0.02475
112.9,0.04125,0.0273
113.001,0.0417,0.023
113.101,0.0417,0.0226
113.201,0.04155,0.0215
113.301,0.04155,0.02025
113.401,0.04155,0.02045
113.501,0.04155,0.01915
113.6,0.04125,0.02565
113.7,0.04125,0.02525
113.8,0.0411,0.0248
113.9,0.0411,0.02415
114,0.0411,0.02365
114.101,0.0411,0.02305
114.2,0.04065,0.02655
114.3,0.0411,0.0213
114.4,0.0411,0.02025
114.5,0.04095,0.02045
114.6,0.04095,0.01975
114.7,0.04095,0.01855
114.799,0.04065,0.02465
114.9,0.04095,0.0177
115,0.04095,0.01645
115.1,0.0408,0.01645
115.2,0.04095,0.0157
115.3,0.0408,0.0147
115.399,0.0405,0.02185
115.5,0.04095,0.0127
115.601,0.0423,0.00225
115.701,0.0408,0.01105
115.801,0.0435,0.0002
115.9,0.04095,0.0098
116.001,0.0426,-0.001
116.101,0.04095,0.00845
116.2,0.0408,0.00765
116.3,0.0408,0.007
116.4,0.04095,0.0055
116.501,0.0408,0.00465
116.6,0.04035,0.01425
116.7,0.0411,0.00325
116.8,0.0414,0.0025
116.9,0.0417,0.00155
117,0.04185,0.00015
117.1,0.04185,0.00015
117.2,0.04215,-0.0004
117.3,0.04185,-0.0014
117.4,0.04215,-0.0026
117.501,0.04215,-0.0034
117.6,0.04155,-0.00435
117.7,0.04185,-0.0058
117.8,0.04185,-0.0064
117.9,0.04155,-0.0079
118,0.042,-0.00865
118.101,0.04155,-0.009
118.2,0.04185,-0.0097
118.3,0.04185,-0.0113
118.401,0.0429,-0.02315
118.501,0.04275,-0.0245
118.6,0.042,-0.0128
118.7,0.0432,-0.02605
118.799,0.042,-0.00355
118.9,0.0411,-0.004
119,0.04215,-0.0162
119.1,0.042,-0.0173
119.2,0.04215,-0.0184
119.3,0.04215,-0.0186
119.4,0.04215,-0.0204
119.499,0.0411,-0.00975
119.599,0.04095,-0.0103
119.699,0.04095,-0.01175
119.8,0.04215,-0.0238
119.899,0.0414,-0.0129
120,0.04125,-0.01365
120.1,0.04245,-0.027
120.2,0.0426,-0.0277
120.301,0.04275,-0.0416
120.4,0.04305,-0.0299
120.5,0.0432,-0.03125
120.6,0.0438,-0.0317
120.701,0.0429,-0.04495
120.8,0.04365,-0.03455
120.9,0.04335,-0.03555
121.001,0.0429,-0.0471
121.1,0.0429,-0.0369
121.201,0.04305,-0.04915
121.3,0.04245,-0.03895
121.4,0.04215,-0.0402
121.5,0.0423,-0.04135
121.599,0.042,-0.0297
121.7,0.0423,-0.0431
121.801,0.04335,-0.0537
121.9,0.04215,-0.04495
122.001,0.0432,-0.05525
122.1,0.0423,-0.04665
122.201,0.04245,-0.0475
122.3,0.04215,-0.04865
122.4,0.042,-0.0496
122.5,0.04215,-0.04995
122.6,0.0423,-0.05095
122.7,0.0423,-0.05185
122.801,0.04215,-0.06015
122.901,0.042,-0.06105
123,0.04245,-0.05395
123.1,0.0417,-0.04495
123.2,0.0426,-0.0558
123.3,0.04275,-0.05595
123.4,0.04275,-0.0571
123.5,0.04275,-0.0574
123.6,0.0426,-0.0583
123.7,0.04245,-0.0587
123.8,0.0423,-0.0594
123.9,0.04215,-0.0606
124,0.042,-0.06135
124.101,0.0387,-0.06745
124.2,0.04155,-0.06275
124.301,0.03795,-0.0685
124.4,0.04095,-0.0636
124.5,0.0408,-0.064
124.6,0.0405,-0.0653
124.7,0.04005,-0.0655
124.8,0.03975,-0.066
124.9,0.0396,-0.0663
125,0.03915,-0.0671
125.1,0.03915,-0.0675
125.201,0.03525,-0.07025
125.301,0.0348,-0.0705
125.401,0.0345,-0.07055
125.5,0.0378,-0.0697
125.6,0.03735,-0.0699
125.701,0.0342,-0.07055
125.801,0.03375,-0.0706
125.901,0.0363,-0.0711
126,0.03315,-0.0658
126.1,0.03555,-0.07175
126.2,0.03525,-0.07145
126.301,0.033,-0.07005
126.4,0.03495,-0.0724
126.501,0.0345,-0.07245
126.6,0.03435,-0.07245
126.701,0.03405,-0.0721
126.8,0.0339,-0.07235
126.9,0.0336,-0.0723
127,0.03345,-0.07225
127.1,0.036,-0.07265
127.2,0.033,-0.0726
127.3,0.03225,-0.0676
127.401,0.0321,-0.067
127.5,0.0324,-0.0722
127.6,0.03225,-0.07235
127.7,0.03225,-0.0656
127.801,0.03195,-0.0643
127.901,0.0318,-0.06365
128,0.03225,-0.0708
128.1,0.0321,-0.0705
128.201,0.03135,-0.0616
128.3,0.03195,-0.06995
128.4,0.03225,-0.0697
128.5,0.0321,-0.0692
128.6,0.03165,-0.06875
128.7,0.03165,-0.068
128.799,0.03195,-0.0741
128.899,0.03195,-0.07405
129,0.03135,-0.06605
129.099,0.0315,-0.07335
129.2,0.0312,-0.06485
129.301,0.0306,-0.05315
129.4,0.0309,-0.06355
129.5,0.03075,-0.063
129.6,0.0306,-0.062
129.7,0.03045,-0.0614
129.8,0.0306,-0.06115
129.9,0.03045,-0.05995
130.001,0.03045,-0.0466
130.1,0.0303,-0.0588
130.2,0.0303,-0.0585
130.3,0.03015,-0.0579
130.401,0.0303,-0.0312
130.5,0.03015,-0.0564
130.6,0.03,-0.05515
130.701,0.0306,-0.0418
130.8,0.0306,-0.041
130.9,0.03,-0.0522
131.001,0.03075,-0.0391
131.1,0.03,-0.0507
131.2,,-0.0233
131.3,0.02975,-0.04915
131.4,0.02975,-0.04825
131.501,0.0307,-0.03475
131.6,0.03,-0.0473
131.7,0.02975,-0.04615
131.801,0.0307,-0.03205
131.9,0.0301,-0.0451
132.001,0.03045,-0.03035
132.101,0.03065,-0.0293
132.2,0.03005,-0.04265
132.3,0.0301,-0.04165
132.4,0.0301,-0.04035
132.501,0.031,-0.02585
132.6,0.0302,-0.0392
132.7,0.03005,-0.0235
132.801,0.03095,-0.02245
132.9,0.0301,-0.03645
133,0.0294,-0.04895
133.1,0.03005,-0.0342
133.2,0.0301,-0.0336
133.3,0.0301,-0.03225
133.4,0.0301,-0.0181
133.5,0.03025,-0.0302
133.6,0.03045,-0.0293
133.7,0.03045,-0.02805
133.8,0.03045,-0.0277
133.901,0.03085,-0.01485
134.001,0.0308,-0.01405
134.1,0.0305,-0.0247
134.2,0.03045,-0.0237
134.301,0.03035,-0.0229
134.4,0.0296,-0.0358
134.5,0.0304,-0.02145
134.6,0.02955,-0.034
134.7,0.0305,-0.0205
134.801,0.0307,-0.01085
134.901,0.0308,-0.01045
135,0.0305,-0.0184
135.1,0.03045,-0.0173
135.2,0.0301,-0.0283
135.3,0.0304,-0.0163
135.4,0.0303,-0.01575
135.5,0.03035,-0.0154
135.6,0.03035,-0.01515
135.699,0.02995,-0.0246
135.8,0.0303,-0.01435
135.9,0.0303,-0.00835
136,0.03035,-0.0138
136.1,0.03035,-0.01335
136.201,0.0304,-0.01295
136.3,0.03035,-0.01275
136.4,0.0304,-0.01235
136.501,0.03095,-0.00815
136.6,0.03045,-0.01205
136.701,0.03045,-0.012
136.8,0.0305,-0.01205
136.9,0.03045,-0.0116
137.001,0.03085,-0.0089
137.1,0.03045,-0.01155
137.2,0.0304,-0.01135
137.3,0.03035,-0.0116
137.401,0.0303,-0.0114
137.5,0.0304,-0.0112
137.6,0.0305,-0.0113
137.7,0.0305,-0.01145
137.801,0.0309,-0.0117
137.9,0.03055,-0.01165
138,0.03,-0.01505
138.1,0.0305,-0.01205
138.2,0.03045,-0.0122
138.3,0.0304,-0.01255
138.401,0.03075,-0.0159
138.5,0.0304,-0.01325
138.6,0.03045,-0.0136
138.7,0.0305,-0.014
138.801,0.0308,-0.0203
138.9,0.0305,-0.01505
139,0.03045,-0.0157
139.1,0.03045,-0.01635
139.2,0.0304,-0.02425
139.3,0.0304,-0.01795
139.4,0.0304,-0.01865
139.501,0.0308,-0.02725
139.6,0.03045,-0.03895
139.7,0.03045,-0.02165
139.8,0.0304,-0.02285
139.901,0.03085,-0.03275
140,0.03045,-0.0252
140.1,0.03045,-0.0261
140.2,0.03045,-0.0265
140.299,0.03005,-0.02065
140.4,0.03045,-0.0291
140.5,0.03045,-0.0303
140.6,0.0305,-0.0316
140.701,0.0321,-0.04325
140.8,0.03055,-0.03455
140.901,0.0307,-0.03565
141,0.0306,-0.0371
141.101,0.03205,-0.04905
141.2,0.0334,-0.0618
141.3,0.0306,-0.0413
141.4,0.0308,-0.0425
141.5,0.0311,-0.0436
141.599,0.0301,-0.03485
141.7,0.0314,-0.04645
141.8,0.03175,-0.0477
141.901,0.03285,-0.0606
142,0.0326,-0.0514
142.101,0.03285,-0.0642
142.201,0.0316,-0.06525
142.3,0.03175,-0.056
142.399,0.0303,-0.04535
142.5,0.0306,-0.04755
142.6,0.0322,-0.0604
142.7,0.03235,-0.0619
142.8,0.03235,-0.06245
142.901,0.0323,-0.0637
143,0.0323,-0.0663
143.101,0.03425,-0.0799
143.2,0.0324,-0.06945
143.301,0.0326,-0.07025
143.4,0.03275,-0.07155
143.501,0.0327,-0.0735
143.6,0.03275,-0.0745
143.7,0.03275,-0.07675
143.799,0.0319,-0.0659
143.9,0.03325,-0.0794
144,0.0336,-0.0812
144.1,0.0339,-0.08245
144.201,0.0337,-0.09635
144.3,0.03455,-0.0861
144.4,0.03245,-0.07515
144.5,0.0338,-0.0899
144.6,0.0336,-0.0907
144.699,0.03265,-0.07965
144.8,0.03325,-0.0942
144.9,0.03325,-0.0957
145,0.03325,-0.09725
145.1,0.0332,-0.09895
145.201,0.03415,
145.3,0.0332,-0.1032
145.4,0.0333,-0.1029
145.5,0.0333,-0.10425
145.601,0.0338,-0.1146
145.7,0.0333,-0.10755
145.8,0.0333,-0.10845
145.899,0.0328,-0.0996
146,0.03355,-0.11145
146.099,0.0328,-0.102
146.2,0.03385,-0.11325
146.299,0.03275,-0.105
146.4,0.03385,-0.11535
146.501,0.03365,-0.117
146.6,0.0336,-0.11805
146.7,0.0335,-0.11925
146.8,0.0334,-0.1203
146.901,0.0302,-0.1269
147.001,0.0298,-0.12765
147.1,0.0326,-0.123
147.201,0.029,-0.1293
147.3,0.03195,-0.12495
147.4,0.03165,-0.126
147.501,0.0277,-0.13065
147.601,0.0274,-0.13155
147.7,0.0307,-0.12915
147.8,0.0306,-0.12975
147.9,0.03035,-0.1308
148,0.02995,-0.13185
148.101,0.02945,-0.1326
148.2,0.029,-0.13275
148.3,0.02875,-0.13335
148.401,0.0254,-0.1338
148.501,0.0279,-0.1347
148.6,0.0274,-0.13545
148.7,0.0272,-0.1188
148.8,0.027,-0.1368
148.9,0.0267,-0.13695
148.999,0.03005,-0.1353
149.1,0.02975,-0.13605
149.2,0.02585,-0.1383
149.301,0.0241,-0.13545
149.401,0.024,-0.13515
149.5,0.025,-0.13875
149.601,0.02435,-0.13485
149.7,0.0248,-0.1398
149.801,0.0239,-0.1344
149.9,0.0243,-0.14025
150,0.0242,-0.14025
150.1,0.02425,-0.1401
150.201,0.0237,-0.1338
150.3,0.02385,-0.14085
150.4,0.02375,-0.141
150.5,0.024,-0.1092
150.6,0.02405,-0.14085
150.7,0.02375,-0.14085
150.799,0.0245,-0.14535
150.899,0.02435,-0.1452
151,0.02375,-0.14055
151.099,0.02405,-0.14595
151.2,0.0236,-0.1401
151.3,0.0236,-0.14025
151.4,0.0233,-0.1398
151.501,0.02255,-0.12885
151.6,0.0232,-0.13875
151.7,0.023,-0.13875
151.8,0.0228,-0.1383
151.901,0.02245,-0.12675
152,0.0226,-0.13725
152.1,0.02245,-0.1371
152.199,0.02315,-0.147
152.3,0.02325,-0.14655
152.4,0.02225,-0.1359
152.5,0.0222,-0.13515
152.6,0.0223,-0.1356
152.699,0.0228,-0.1455
152.8,0.0222,-0.1347
152.901,0.022,-0.1338
153,0.02195,-0.1074
153.1,0.0221,-0.1329
153.2,0.0219,-0.13185
153.299,0.0221,-0.1437
153.4,0.022,-0.13065
153.501,0.02265,-0.1179
153.6,0.0219,-0.1296
153.699,0.02185,-0.14205
153.801,0.0228,-0.1164
153.9,0.0219,-0.12855
153.999,0.02165,-0.1407
154.1,0.0221,-0.1281
154.2,0.0221,-0.12735
154.299,0.0216,-0.13905
154.399,0.02175,-0.1383
154.5,0.0222,-0.1254
154.6,0.02225,-0.12435
154.7,0.02235,-0.12435
154.799,0.02155,-0.13635
154.899,0.02155,-0.1359
155,0.0225,-0.12255
155.101,0.02325,-0.10755
155.201,0.02315,-0.1071
155.299,0.0218,-0.13425
155.399,0.02175,-0.13425
155.5,0.02225,-0.09015
155.6,0.02235,-0.1188
155.7,0.0224,-0.11835
155.8,0.022,-0.1317
155.9,0.0228,-0.1167
156,0.0229,-0.11595
156.099,0.0221,-0.12975
156.2,0.0229,-0.1149
156.3,0.02285,-0.1143
156.401,0.0232,-0.1032
156.501,0.02315,-0.1029
156.6,0.0228,-0.11295
156.7,0.0228,-0.1125
156.8,0.0229,-0.11205
156.9,0.02295,-0.1119
157,0.0229,-0.1113
157.1,0.0229,-0.111
157.201,0.0233,-0.1029
157.3,0.02295,-0.1104
157.401,0.02335,-0.10335
157.5,0.02285,-0.1098
157.599,0.02255,-0.12
157.7,0.0228,-0.10995
157.8,0.02285,-0.10995
157.9,0.0229,-0.10995
158,0.0229,-0.10965
158.101,0.02345,-0.10485
158.201,0.02345,-0.10515
158.3,0.023,-0.1101
158.4,0.023,-0.11025
158.499,0.0225,-0.1173
158.6,0.0225,-0.11715
158.7,0.02315,-0.1107
158.8,0.0232,-0.11115
158.899,0.02255,-0.11745
159,0.02315,-0.1116
159.1,0.0231,-0.1119
159.2,0.02305,-0.11235
159.301,0.02355,-0.11145
159.401,0.02355,-0.11205
159.5,0.02325,-0.11355
159.601,0.02365,-0.11385
159.701,0.0236,-0.11475
159.801,0.0236,-0.11565
159.9,0.0232,-0.11535
160,0.02325,-0.1161
160.1,0.02315,-0.11685
160.2,0.0232,-0.11745
160.3,0.0232,-0.11835
160.4,0.02325,-0.11925
160.5,0.02325,-0.12
160.6,0.02325,-0.12075
160.7,0.02325,-0.1215
160.8,0.02325,-0.12255
160.9,0.02325,-0.12345
161,0.02325,-0.1245
161.1,0.02325,-0.12555
161.201,0.02365,-0.1338
161.3,0.02325,-0.12795
161.4,0.02325,-0.12915
161.5,0.02325,-0.13065
161.599,0.02295,-0.12765
161.7,0.02325,-0.13365
161.801,0.0237,-0.14325
161.9,0.0233,-0.1359
162,0.02325,-0.1374
162.1,0.0233,-0.1392
162.199,0.02285,-0.1338
162.3,0.02335,-0.1416
162.4,0.0233,-0.144
162.5,0.0234,-0.14595
162.601,0.0244,-0.1572
162.7,0.02345,-0.14835
162.801,0.0254,-0.16095
162.901,0.0234,-0.15225
163,0.0235,-0.1533
163.1,0.02355,-0.156
163.201,0.0254,-0.16755
163.3,0.02355,-0.15855
163.4,0.02375,-0.16065
163.5,0.02375,-0.16305
163.601,0.0252,-0.1755
163.7,0.02425,-0.16605
163.8,0.02495,-0.16845
163.9,0.0247,-0.1695
164,0.02505,-0.1716
164.1,0.0251,-0.17385
164.2,0.02475,-0.17505
164.3,0.0246,-0.17685
164.401,0.026,-0.19035
164.5,0.0251,-0.1821
164.6,0.0249,-0.18315
164.701,0.026,-0.1968
164.8,0.025,-0.1866
164.9,0.0252,-0.1884
165.001,0.02635,-0.20235
165.1,0.0255,-0.19155
165.201,0.0264,-0.2067
165.301,0.0267,-0.20865
165.4,0.02555,-0.1974
165.499,0.0243,-0.1887
165.599,0.02435,-0.19065
165.7,0.02565,-0.20385
165.8,0.0257,-0.20565
165.9,0.02575,-0.2073
166.001,0.0257,-0.2094
166.1,0.02575,-0.2115
166.2,0.0258,-0.21315
166.3,0.026,-0.21465
166.4,0.0261,-0.21765
166.501,0.0263,-0.2316
166.6,0.02725,-0.22095
166.7,0.02715,-0.22365
166.8,0.02725,-0.225
166.901,0.0267,-0.23805
167,0.027,-0.2289
167.099,0.0255,-0.21825
167.2,0.0262,-0.23325
167.3,0.02595,-0.23505
167.401,0.027,-0.24705
167.5,0.02595,-0.23865
167.6,0.0259,-0.2403
167.7,0.0259,-0.2424
167.801,0.0276,-0.25305
167.9,0.02595,-0.246
168.001,0.0276,-0.2559
168.1,0.0261,-0.24915
168.201,0.02455,-0.2658
168.3,0.0263,-0.2529
168.399,0.02605,-0.24375
168.5,0.0257,-0.2463
168.6,0.02665,-0.25815
168.701,0.0263,-0.26745
168.8,0.02675,-0.26175
168.9,0.02695,-0.2634
169.001,0.02525,-0.27225
169.101,0.02515,-0.27345
169.2,0.0271,-0.2679
169.3,0.02695,-0.26925
169.401,0.0243,-0.2778
169.5,0.0267,-0.2727
169.601,0.0237,-0.2805
169.701,0.0234,-0.282
169.801,0.0263,-0.27765
169.9,0.026,-0.27885
170,0.02645,-0.273
170.1,0.02545,-0.2823
170.2,0.02505,-0.2838
170.301,0.02135,-0.2895
170.401,0.0246,-0.28665
170.501,0.02435,-0.28845
170.6,0.02405,-0.28965
170.7,0.0238,-0.291
170.801,0.01985,-0.29535
170.901,0.0196,-0.2958
171,0.02305,-0.2955
171.1,0.02265,-0.297
171.201,0.019,-0.2985
171.3,0.0218,-0.29985
171.4,0.0249,-0.29625
171.5,0.0209,
171.601,0.02095,-0.303
171.7,0.0206,-0.3035
171.801,0.018,-0.303
171.9,0.02005,-0.306
172,0.0198,-0.3075
172.1,0.0194,-0.308
172.201,0.0177,-0.306
172.3,0.01915,-0.3095
172.4,0.01875,-0.311
172.5,0.02175,-0.3115
172.6,0.01845,-0.3125
172.7,0.01825,-0.3135
172.8,0.0179,-0.3145
172.9,0.01795,-0.315
173.001,0.0178,-0.316
173.1,0.0175,-0.317
173.199,0.0197,-0.32
173.3,0.01735,-0.3185
173.4,0.01705,-0.3195
173.501,0.01695,-0.3125
173.6,0.0173,-0.321
173.7,0.01695,-0.3215
173.8,0.01675,-0.3225
173.899,0.01795,-0.327
174,0.0173,-0.324
174.1,0.01705,-0.3245
174.2,0.0167,-0.325
174.3,0.0168,-0.3265
174.4,0.01695,-0.326
174.5,0.0167,-0.3265
174.601,0.0158,-0.317
174.701,0.01575,-0.317
174.8,0.01655,-0.328
174.9,0.0163,-0.3285
175.001,0.01565,-0.318
175.101,0.0163,-0.329
175.2,0.01605,-0.3295
175.3,0.01585,-0.33
175.401,0.01565,-0.3185
175.5,0.0158,-0.331
175.6,0.01565,-0.331
175.7,0.0155,-0.3315
175.8,0.01545,-0.332
175.899,0.0162,-0.3425
176,0.0155,-0.3325
176.101,0.01555,-0.3205
176.2,0.01525,-0.333
176.3,0.0153,-0.334
176.401,0.01525,-0.3335
176.5,0.01525,-0.334
176.6,0.01535,-0.334
176.7,0.0153,-0.3345
176.801,0.0159,-0.3225
176.9,0.0153,-0.3345
177.001,0.01595,-0.3225
177.1,0.01515,-0.335
177.2,0.0152,-0.3355
177.301,0.0161,-0.323
177.4,0.01525,-0.3365
177.5,0.01525,-0.3365
177.6,0.0153,-0.3365
177.701,0.01605,-0.3235
177.801,0.0161,-0.323
177.901,0.01615,-0.323
178.001,0.01615,-0.323
178.101,0.0163,-0.3235
178.201,0.01645,-0.3235
178.3,0.0157,-0.3385
178.401,0.01665,-0.324
178.501,0.01585,-0.339
178.6,0.0159,-0.339
178.7,0.0159,-0.339
178.8,0.01585,-0.339
178.901,0.0166,-0.325
179.001,0.01575,-0.339
179.1,0.0158,-0.3395
179.201,0.0166,-0.326
179.3,0.01595,-0.339
179.4,0.0161,-0.339
179.5,0.0162,-0.3395
179.599,0.01525,-0.3545
179.699,0.01545,-0.354
179.799,0.01555,-0.354
179.9,0.0163,-0.3405
180,0.0163,-0.3405
180.1,0.01625,-0.341
180.201,0.0162,-0.3415
180.3,0.01625,-0.342
180.4,0.0162,-0.3425
180.5,0.0154,-0.3555
180.6,0.0163,-0.3435
180.7,0.01575,-0.344
180.8,0.01635,-0.3445
180.9,0.01635,-0.345
181,0.01635,-0.3455
181.101,0.01635,-0.3465
181.2,0.0163,-0.3465
181.3,0.01635,-0.3475
181.401,0.0169,-0.342
181.5,0.0163,-0.3495
181.601,0.01695,-0.3435
181.701,0.0169,-0.345
181.8,0.01635,-0.352
181.901,0.01695,-0.347
182.001,0.0164,-0.3535
182.1,0.0164,-0.3545
182.2,0.01645,-0.3555
182.3,0.01645,-0.3565
182.4,0.0165,-0.3575
182.5,0.0165,-0.358
182.6,0.01655,-0.3595
182.7,0.01665,-0.3605
182.799,0.016,-0.3675
182.9,0.016,-0.3685
183,0.0167,-0.3635
183.101,0.01665,-0.3645
183.2,0.0166,-0.3655
183.301,0.01705,-0.365
183.401,0.0171,-0.367
183.5,0.01665,-0.369
183.6,0.0167,-0.3705
183.7,0.0168,-0.372
183.801,0.01715,-0.3735
183.9,0.01685,-0.3745
184,0.0168,-0.376
184.101,0.01675,-0.3775
184.2,0.01675,-0.3785
184.3,0.01675,-0.3805
184.401,0.0171,-0.3845
184.5,0.0168,-0.3835
184.6,0.0168,-0.385
184.7,0.0168,-0.3865
184.8,0.0168,-0.3885
184.9,0.01685,-0.39
185,0.01685,-0.3915
185.1,0.0169,-0.3935
185.201,0.01715,-0.401
185.3,0.01685,-0.397
185.399,0.01645,-0.3975
185.5,0.01685,-0.401
185.6,0.01685,-0.403
185.701,0.01725,-0.4125
185.8,0.01685,-0.407
185.9,0.01685,-0.4095
186,0.0169,-0.4115
186.1,0.01685,-0.4145
186.2,0.0169,-0.416
186.299,0.01655,-0.412
186.401,0.01735,-0.4295
186.5,0.01655,-0.416
186.601,0.01695,-0.4245
186.7,0.01695,-0.4265
186.801,0.01775,-0.439
186.901,0.01695,-0.4315
187,0.01695,-0.435
187.1,0.01695,-0.436
187.201,0.0171,-0.439
187.3,0.01715,-0.442
187.401,0.01875,-0.4545
187.5,0.01705,-0.4475
187.6,0.0172,-0.4495
187.7,0.01725,-0.4515
187.8,0.0172,-0.4545
187.9,0.01725,-0.4565
188,0.01745,-0.4585
188.101,0.0187,-0.4735
188.201,0.0188,-0.4755
188.301,0.0191,-0.478
188.4,0.01815,-0.469
188.5,0.019,-0.473
188.6,0.0188,-0.474
188.699,0.017,-0.4665
188.8,0.0186,-0.4805
188.9,0.01855,-0.4825
188.999,0.01695,-0.4745
189.1,0.01855,-0.4885
189.2,0.0185,-0.491
189.3,0.01865,-0.4935
189.399,0.0174,-0.496
189.5,0.0192,-0.499
189.6,0.01905,-0.5015
189.7,0.0192,-0.504
189.8,0.0194,-0.5075
189.9,0.01935,-0.51
190,0.01935,-0.5125
190.1,0.0194,-0.516
190.199,0.01825,-0.508
190.299,0.01845,-0.511
190.399,0.0185,-0.513
190.499,0.01865,-0.516
190.6,0.0197,-0.5305
190.699,0.0187,-0.5205
190.799,0.01895,-0.524
190.9,0.0206,-0.5395
190.999,0.01915,-0.5295
191.1,0.0211,-0.545
191.2,0.0213,-0.548
191.301,0.0204,-0.5635
191.4,0.0209,-0.555
191.5,0.02055,-0.558
191.6,0.0203,-0.5605
191.701,0.02075,-0.574
191.8,0.0199,-0.567
191.9,0.01995,-0.569
192,0.02,-0.572
192.101,0.02145,-0.584
192.2,0.02005,-0.5775
192.299,0.0209,-0.5685
192.4,0.0202,-0.584
192.5,0.0203,-0.5865
192.6,0.0203,-0.5895
192.699,0.02015,-0.581
192.8,0.02055,-0.5945
192.9,0.02075,-0.598
193,0.021,-0.6005
193.1,0.0211,-0.603
193.2,0.02115,-0.606
193.3,0.02,-0.5985
193.401,0.02115,-0.6105
193.5,0.0212,-0.614
193.601,0.0185,-0.6225
193.701,0.0209,-0.619
193.8,0.02065,-0.6215
193.9,0.02015,-0.616
194,0.02025,-0.626
194.1,0.02,-0.629
194.201,0.0164,-0.6365
194.301,0.0159,-0.639
194.4,0.0157,-0.641
194.5,0.01895,-0.64
194.599,0.0209,-0.636
194.699,0.02075,-0.638
194.8,0.018,-0.647
194.9,0.01765,-0.6495
195.001,0.01375,-0.6535
195.1,0.01695,-0.654
195.2,0.0167,-0.656
195.3,0.0195,-0.6535
195.4,0.01585,-0.661
195.5,0.0153,-0.663
195.601,0.01245,-0.664
195.701,0.0124,-0.666
195.8,0.01445,-0.6695
195.9,0.01415,-0.6715
196,0.014,-0.6735
196.101,0.0117,-0.673
196.201,0.01155,-0.675
196.3,0.013,-0.6795
196.401,0.0128,-0.6815
196.5,0.01555,-0.6835
196.6,0.0124,-0.6855
196.701,0.0118,-0.682
196.801,0.0122,-0.689
196.901,0.01205,-0.69
197.001,0.0113,-0.686
197.101,0.0111,-0.687
197.2,0.01165,-0.6955
197.301,0.0116,-0.6975
197.4,0.0115,-0.6995
197.5,0.0114,-0.7005
197.6,0.0114,-0.7025
197.7,0.01145,-0.7035
197.8,0.0113,-0.7055
197.901,0.0102,-0.6975
198,0.0112,-0.7085
198.099,0.0118,-0.716
198.199,0.01165,-0.718
198.3,0.01085,-0.7125
198.401,0.00995,-0.704
198.5,0.0107,-0.715
198.6,0.01135,-0.7255
198.7,0.01135,-0.7275
198.8,0.0103,-0.7195
198.899,0.0113,-0.731
199,0.0101,-0.7225
199.101,0.0099,-0.7115
199.2,0.00995,-0.7255
199.301,0.00995,-0.714
199.4,0.0099,-0.728
199.5,0.0098,-0.7295
199.601,0.0101,-0.719
199.7,0.0097,-0.7325
199.8,0.00965,-0.734
199.9,0.0097,-0.7345
200.001,0.0097,-0.736
200.1,0.0097,-0.7255
200.2,0.0097,-0.738
200.3,0.0097,-0.74
200.401,0.0106,-0.729
200.5,0.0098,-0.7425
200.6,0.00985,-0.744
200.701,0.0108,-0.7325
200.8,0.0099,-0.7475
200.901,0.0108,-0.735
201.001,0.01075,-0.7365
201.1,0.0101,-0.751
201.2,0.01015,-0.7525
201.3,0.01025,-0.7535
201.401,0.01095,-0.7405
201.5,0.01035,-0.7565
201.6,0.01035,-0.7575
201.7,0.0104,-0.759
201.799,0.0097,-0.773
201.9,0.01055,-0.7615
202,0.01045,-0.763
202.099,0.0098,-0.777
202.199,0.0099,-0.7785
202.3,0.01055,-0.7525
202.401,0.01135,-0.7545
202.5,0.0107,-0.768
202.6,0.01085,-0.7695
202.699,0.01005,-0.785
202.8,0.011,-0.7715
202.901,0.0114,-0.762
203.001,0.01105,-0.774
203.1,0.011,-0.7755
203.2,0.01105,-0.777
203.3,0.01025,-0.7925
203.4,0.011,-0.78
203.499,0.01035,-0.795
203.6,0.0104,-0.796
203.7,0.01065,-0.797
203.8,0.01125,-0.7865
203.901,0.01155,-0.78
204,0.0112,-0.7895
204.1,0.0112,-0.7915
204.2,0.0112,-0.7935
204.3,0.0112,-0.795
204.401,0.0119,-0.791
204.5,0.01115,-0.799
204.6,0.01125,-0.801
204.7,0.01125,-0.803
204.8,0.0113,-0.805
204.9,0.0109,-0.816
205,0.0114,-0.8095
205.1,0.01145,-0.8115
205.199,0.01095,-0.821
205.3,0.01145,-0.816
205.4,0.0115,-0.8185
205.501,0.0121,-0.817
205.6,0.0116,-0.8225
205.7,0.0117,-0.825
205.8,0.01165,-0.8275
205.899,0.01105,-0.8355
206,0.01105,-0.8375
206.1,0.01165,-0.835
206.2,0.01165,-0.838
206.3,0.0117,-0.84
206.4,0.01175,-0.843
206.5,0.01185,-0.845
206.6,0.01185,-0.8465
206.7,0.0119,-0.8495
206.799,0.01145,-0.8555
206.9,0.01185,-0.855
207.001,0.0122,-0.86
207.101,0.01225,-0.863
207.201,0.0122,-0.866
207.3,0.01185,-0.866
207.399,0.01145,-0.87
207.5,0.01195,-0.872
207.6,0.012,-0.875
207.7,0.01195,-0.878
207.801,0.01235,-0.887
207.901,0.01235,-0.891
208.001,0.0124,-0.8945
208.1,0.012,-0.891
208.2,0.01195,-0.894
208.3,0.012,-0.898
208.4,0.012,-0.9015
208.5,0.01205,-0.9045
208.6,0.01205,-0.9075
208.7,0.01205,-0.912
208.8,0.0121,-0.915
208.9,0.0121,-0.919
209,0.01215,-0.922
209.101,0.0128,-0.935
209.201,0.01295,-0.939
209.3,0.0122,-0.954
209.4,0.01225,-0.937
209.5,0.01225,-0.9415
209.601,0.01345,-0.9555
209.701,0.01365,-0.9585
209.8,0.0123,-0.9535
209.901,0.01455,-0.967
210,0.0124,-0.96
210.1,0.0126,-0.965
210.2,0.01265,-0.968
210.299,0.01195,-0.9625
210.4,0.0125,-0.976
210.5,0.01255,-0.98
210.6,0.0126,-0.984
210.701,0.01455,-0.999
210.801,0.01435,
210.9,0.0137,-0.9945
211,0.0136,-0.996
211.101,0.01485,-1.011
211.2,0.0144,-1.0035
211.301,0.0149,-1.02
211.4,0.01435,-1.0125
211.5,0.01375,-1.0155
211.6,0.01365,-1.02
211.7,0.01415,-1.0245
211.801,0.01395,-1.0275
211.9,0.01405,-1.032
211.999,0.01275,-1.0245
212.1,0.01395,-1.0395
212.2,0.0142,-1.044
212.3,0.0145,-1.0485
212.4,0.01465,-1.0515
212.501,0.016,-1.068
212.601,0.0161,-1.0725
212.701,0.01625,-1.077
212.8,0.01485,-1.068
212.9,0.0148,-1.0725
213,0.01485,-1.0755
213.1,0.0149,-1.08
213.2,0.0149,-1.0845
213.3,0.0149,-1.089
213.401,0.0166,-1.1055
213.5,0.0152,-1.0965
213.6,0.0152,-1.101
213.702,0.01635,-1.128
213.8,0.0153,-1.1085
213.9,0.01525,-1.113
214.002,0.0165,-1.14
214.1,0.01555,-1.122
214.2,0.01585,-1.1265
214.3,0.01615,-1.1295
214.401,0.0159,-1.146
214.501,0.01585,-1.1505
214.601,0.0159,-1.155
214.7,0.01695,-1.146
214.8,0.01675,-1.1505
214.9,0.0148,-1.143
215.001,0.01585,-1.17
215.1,0.01625,-1.1625
215.2,0.0161,-1.1685
215.3,0.01575,-1.1715
215.4,0.01565,-1.176
215.5,0.0156,-1.1805
215.6,0.01545,-1.185
215.701,0.0164,-1.1985
215.8,0.0154,-1.194
215.9,0.01535,-1.1985
216.001,0.0166,-1.2105
216.101,0.0155,-1.2045
216.2,0.01555,-1.209
216.3,0.0155,-1.2135
216.401,0.01665,-1.227
216.501,0.01555,-1.221
216.6,0.01555,-1.2255
216.699,0.01595,-1.2195
216.8,0.0156,-1.2345
216.901,0.0157,-1.2375
217,0.0156,-1.242
217.1,0.01565,-1.2465
217.2,0.0157,-1.2495
217.301,0.0158,-1.254
217.4,0.01585,-1.2585
217.501,0.01605,-1.263
217.6,0.0159,-1.266
217.7,0.01605,-1.2705
217.8,0.0162,-1.275
217.9,0.0153,-1.269
218,0.0163,-1.2825
218.1,0.01635,-1.287
218.199,0.01535,-1.2825
218.3,0.01625,-1.2945
218.401,0.0138,-1.305
218.5,0.0161,-1.3035
218.599,0.0154,-1.299
218.7,0.01605,-1.311
218.799,0.01525,-1.3155
218.9,0.01525,-1.3125
219,0.0157,-1.3245
219.1,0.01555,-1.329
219.199,0.0154,-1.3245
219.3,0.01535,-1.3365
219.4,0.0152,-1.341
219.5,0.01505,-1.3455
219.6,0.01495,-1.35
219.701,0.01145,-1.359
219.8,0.01465,-1.3575
219.9,0.0144,-1.362
220,0.0144,-1.365
220.1,0.0159,-1.3635
220.2,0.0141,-1.374
220.3,0.0138,-1.38
220.4,0.01365,-1.383
220.5,0.0135,-1.3875
220.6,0.0134,-1.392
220.7,0.01335,-1.3965
220.799,0.0157,-1.3935
220.9,0.013,-1.404
220.999,0.01535,-1.4025
221.1,0.01525,-1.407
221.2,0.01275,-1.416
221.3,0.01525,-1.416
221.4,0.01225,-1.425
221.501,0.01205,-1.4295
221.6,0.01205,-1.434
221.7,0.0117,-1.4385
221.8,0.0115,-1.443
221.901,0.0081,-1.446
222.001,0.00795,-1.4505
222.1,0.0108,-1.455
222.201,0.0075,-1.4595
222.301,0.00735,-1.464
222.4,0.0102,-1.4685
222.499,0.01365,-1.4685
222.6,0.0099,-1.4775
222.701,0.00715,-1.4805
222.801,0.00705,-1.485
222.901,0.0094,-1.491
223,0.00935,-1.4955
223.1,0.0093,-1.5
223.2,0.00915,-1.5045
223.3,0.009,-1.509
223.402,0.0057,-1.5045
223.5,0.0088,-1.518
223.6,0.0086,-1.5225
223.701,0.0066,-1.5225
223.801,0.00625,-1.527
223.9,0.00825,-1.5345
224.001,0.00645,-1.536
224.101,0.0079,-1.542
224.2,0.00765,-1.5465
224.3,0.0077,-1.551
224.4,0.0076,-1.5555
224.5,0.0074,-1.56
224.6,0.00745,-1.5645
224.699,0.01025,-1.569
224.8,0.00705,-1.5735
224.901,0.00625,-1.5735
225,0.00705,-1.581
225.1,0.00675,-1.5855
225.2,0.0067,-1.59
225.3,0.0069,-1.5945
225.4,0.00665,-1.599
225.499,0.00895,-1.6065
225.6,0.00655,-1.6095
225.7,0.00665,-1.614
225.801,0.00535,-1.6125
225.9,0.0062,-1.623
225.999,0.0083,-1.6305
226.1,0.00615,-1.632
226.201,0.0054,-1.629
226.3,0.00615,-1.641
226.401,0.00505,-1.638
226.5,0.00575,-1.65
226.6,0.00585,-1.653
226.701,0.0051,-1.65
226.801,0.0047,-1.6545
226.901,0.0056,-1.668
227,0.00545,-1.6725
227.1,0.00585,-1.6755
227.2,0.00595,-1.68
227.3,0.0055,-1.683
227.4,0.00515,-1.689
227.499,0.0063,-1.698
227.6,0.00575,-1.698
227.7,0.00535,-1.7025
227.801,0.00435,-1.6965
227.9,0.00545,-1.7115
228,0.0056,-1.7145
228.1,0.00515,-1.7205
228.2,0.00485,-1.7265
228.301,0.0043,-1.7205
228.4,0.00545,-1.734
228.5,0.0059,-1.746
228.6,0.00485,-1.743
228.7,0.0047,-1.7475
228.801,0.004,-1.7415
228.9,0.00445,-1.758
229,0.0044,-1.7625
229.101,0.0041,-1.7565
229.2,0.0045,-1.77
229.3,0.0044,-1.773
229.4,0.0043,-1.776
229.499,0.005,-1.788
229.6,0.00425,-1.7895
229.699,0.00535,-1.797
229.799,0.0042,-1.7985
229.9,0.0042,-1.7865
230,0.00385,-1.797
230.1,0.00395,-1.7865
230.2,0.00385,-1.779
230.3,0.00485,-1.734
230.4,0.0015,-1.7895
230.501,0.004,-1.8015
230.6,0.0039,-1.827
230.7,0.00405,-1.83
230.8,0.00375,-1.8315
230.9,0.00375,-1.842
231,0.0036,-1.8435
231.1,0.00365,-1.8465
231.2,0.0041,-1.8585
231.3,0.0034,-1.8585
231.4,0.00325,-1.863
231.5,0.00365,-1.8645
231.6,0.00385,-1.863
231.7,0.00365,-1.8825
231.8,0.00365,-1.8915
231.9,0.00375,-1.9035
232,0.00365,-1.893
232.101,0.00435,-1.89
232.2,0.00345,-1.9065
232.301,0.00455,-1.9035
232.401,0.00355,-1.917
232.5,0.00375,-1.9215
232.601,0.00475,-1.917
232.701,0.00475,-1.917
232.8,0.0038,-1.938
232.9,0.00385,-1.9425
233,0.0039,-1.95
233.1,0.004,-1.953
233.2,0.00325,-1.9695
233.3,0.00415,-1.9635
233.401,0.00495,-1.9515
233.5,0.00425,-1.971
233.599,0.00315,-1.986
233.7,0.00415,-1.9785
233.8,0.00435,-1.9845
233.9,0.00435,-1.992
234.001,0.00445,-1.9935
234.1,0.00455,-1.9965
234.2,0.0045,-2.001
234.3,0.0044,-2.0055
234.4,0.0045,-2.0115
234.501,0.00525,-2.01
234.601,0.0053,-2.01
234.7,0.0045,-1.995
234.8,0.00475,-1.9545
234.9,0.00475,-1.938
234.999,0.00365,-2.073
235.1,0.0049,-2.055
235.201,0.0055,-2.019
235.3,0.005,-2.0415
235.4,0.0051,-2.034
235.499,0.0043,-2.052
235.6,0.005,-2.043
235.699,0.00405,-2.055
235.799,0.005,-2.067
235.9,0.00505,-2.0805
236,0.0051,-2.073
236.1,0.00505,-2.0775
236.2,0.0051,-2.073
236.301,0.00555,-2.0625
236.4,0.0053,-2.0595
236.5,0.00515,-2.0715
236.6,0.00525,-2.0985
236.699,0.00485,-2.1135
236.799,0.00485,-2.1315
236.9,0.00485,-2.133
237,0.00515,-2.121
237.1,0.00525,-2.115
237.199,0.0048,-2.1465
237.3,0.00515,-2.142
237.4,0.00525,-2.1585
237.501,0.00605,-2.157
237.601,0.006,-2.1615
237.7,0.0053,-2.169
237.8,0.00545,-2.172
237.9,0.00545,-2.178
238,0.0055,-2.187
238.1,0.0055,-2.196
238.2,0.00555,-2.1915
238.3,0.0056,-2.2005
238.4,0.00565,-2.205
238.501,0.0063,-2.217
238.601,0.0063,-2.2305
238.701,0.0061,-2.238
238.8,0.0058,-2.2485
238.901,0.0063,-2.2545
239,0.00585,-2.253
239.099,0.0052,-2.262
239.199,0.0052,-2.2665
239.302,0.0066,-2.2605
239.4,0.00575,-2.259
239.5,0.0061,-2.271
239.599,0.00535,-2.298
239.701,0.00635,-2.277
239.8,0.00595,-2.289
239.9,0.006,-2.286
240.001,0.00645,-2.2965
240.1,0.00605,-2.289
240.2,0.00605,-2.2995
240.301,0.0064,-2.2995
240.401,0.0064,-2.2905
240.5,0.00605,-2.3175
240.6,0.00605,-2.3325
240.7,0.0053,-2.421
240.801,0.00645,-2.346
240.9,0.0059,-2.367
241,0.00605,-2.3775
241.1,0.00605,-2.3865
241.2,0.00615,-2.3715
241.3,0.00615,-2.379
241.401,0.0065,-2.3895
241.501,0.00615,-2.3655
241.6,0.0062,-2.3925
241.699,0.0059,-2.406
241.8,0.00625,-2.3985
241.9,0.0062,-2.4165
242.001,0.0067,-2.442
242.101,0.0066,-2.4435
242.2,0.00615,-2.451
242.3,0.0062,-2.4495
242.401,0.00685,-2.436
242.5,0.0062,-2.484
242.6,0.0062,-2.589
242.7,0.00625,-2.598
242.801,0.00695,-2.6145
242.901,0.0068,-2.6235
243.001,0.0072,-2.631
243.101,0.0071,-2.64
243.2,0.00625,-2.541
243.3,0.00635,-2.5545
243.4,0.0064,-2.6025
243.501,0.0072,-2.5995
243.601,0.0072,-2.61
243.7,0.00655,-2.61
243.801,0.0071,-2.6145
243.9,0.00635,-2.6475
244,0.00685,-2.643
244.099,0.00605,-2.613
244.199,0.00605,-2.649
244.3,0.00685,-2.6655
244.4,0.00665,-2.6625
244.5,0.00675,-2.6655
244.6,0.00675,-2.676
244.699,0.00615,-2.6655
244.8,0.0072,-2.6985
244.9,0.00705,-2.706
245,0.0068,-2.7135
245.1,0.0069,-2.691
245.2,0.0073,-2.718
245.301,0.0087,-2.727
245.4,0.008,-2.7225
245.5,0.00775,-2.7255
245.6,0.0077,-2.7495
245.7,0.0078,-2.745
245.8,0.00835,-2.781
245.901,0.00885,-2.7585
246,0.00955,-2.769
246.1,0.00825,-2.784
246.201,0.00865,-2.781
246.3,0.00895,-2.8155
246.4,0.00885,-2.841
246.499,0.00685,-2.841
246.599,0.0066,-2.814
246.7,0.00875,-2.8545
246.801,0.01,-2.892
246.9,0.009,-2.8935
246.999,0.00755,-2.895
247.1,0.00755,-2.9175
247.201,0.00995,-2.931
247.299,0.0077,-2.925
247.399,0.00785,
247.501,0.0105,-3.07
247.6,0.00965,-3.065
247.701,0.01065,-3.085
247.8,0.0097,-3.085
247.901,0.0109,-3.11
248,0.0096,-3.105
248.1,0.0097,-3.12
248.2,0.00845,-3.12
248.3,0.00975,-3.135
248.401,0.01045,-3.035
248.5,0.0098,-3.08
248.6,0.00885,-3.075
248.702,0.011,-3.12
248.8,0.01015,-3.04
248.9,0.01035,-3.08
248.999,0.00905,-3.075
249.099,0.0093,-3.085
249.199,0.0119,-3.14
249.3,0.0098,-3.205
249.4,0.01025,-3.215
249.501,0.0101,-3.195
249.6,0.01065,-3.19
249.7,0.0105,-3.205
249.8,0.00885,-3.205
249.901,0.01005,-3.305
250,0.01095,-3.275
250.1,0.0068,-3.145
250.2,0.0069,-3.055
250.299,0.00955,-3.315
250.4,0.0092,-3.13
250.5,0.01135,-3.4
250.6,0.011,-3.41
250.7,0.01105,-3.415
250.8,0.01105,-3.425
250.9,0.01025,-3.415
251,0.0067,-3.33
251.101,0.0092,-3.42
251.201,0.01085,-3.485
251.3,0.0095,-3.43
251.401,0.011,-3.475
251.5,0.0103,-3.495
251.6,0.01065,-3.52
251.7,0.00985,-3.53
251.801,0.01175,-3.535
251.9,0.0103,-3.555
252.001,0.0101,-3.565
252.1,0.01065,-3.58
252.2,0.01055,-3.605
252.3,0.01035,-3.605
252.4,0.0101,-3.61
252.5,0.01065,-3.635
252.6,0.0106,-3.66
252.7,0.01065,-3.67
252.801,0.01095,-3.695
252.9,0.01065,-3.7
253.002,0.00775,-3.73
253.1,0.01075,-3.73
253.201,0.0104,-3.75
253.3,0.01095,-3.76
253.4,0.01095,-3.77
253.5,0.01135,-3.775
253.6,0.011,-3.8
253.7,0.01125,-3.815
253.8,0.0114,-3.825
253.9,0.0113,-3.835
254,0.0112,-3.845
254.099,0.0101,-3.85
254.2,0.0111,-3.865
254.3,0.0114,-3.885
254.4,0.0112,-3.89
254.5,0.0104,-3.91
254.599,0.01065,-3.905
254.7,0.01095,-3.93
254.801,0.00785,-3.95
254.9,0.0109,-3.96
255,0.00945,-3.925
255.099,0.01085,-3.995
255.2,0.0105,-4.015
255.3,0.0103,-4.035
255.399,0.01075,-4.04
255.5,0.00995,-4.065
255.6,0.0099,-4.095
255.7,0.0094,-4.1
255.8,0.0094,-4.135
255.9,0.0096,-4.15
255.999,0.0116,-4.155
256.1,0.00715,-4.165
256.201,0.0041,-4.145
256.301,0.0045,-4.17
256.4,0.008,-4.135
256.5,0.00735,-3.99
256.6,0.0086,-4.11
256.701,0.00435,-4.15
256.8,0.00825,-4.165
256.901,0.00425,-4.19
257.001,0.0017,-4.18
257.1,0.0068,-4.215
257.2,0.0068,-4.22
257.301,0.0041,-4.255
257.4,0.00555,-4.26
257.5,0.0063,-4.285
257.6,0.0052,-4.29
257.701,0.0027,-4.29
257.801,0.00265,-4.33
257.9,0.00575,-4.335
258,0.00615,-4.275
258.1,0.0052,-4.32
258.2,0.00485,-4.27
258.301,0.00155,-4.32
258.4,0.00465,-4.375
258.5,0.0027,-4.405
258.6,0.0036,-4.365
258.7,0.003,-4.06
258.8,-0.00255,-4.135
258.899,-0.00035,-3.85
259,0.00385,-4.635
259.099,0.006,-4.605
259.2,0.00405,-4.605
259.3,0.0013,-4.65
259.4,0.00295,-4.605
259.501,0.00135,-4.745
259.6,0.0031,-4.72
259.701,0.0015,-4.37
259.8,0.00405,-4.6
259.9,0.0045,-4.715
260,0.0044,-4.79
260.099,0.0045,-4.71
260.2,0.00105,-4.885
260.3,0.0016,-4.735
260.4,-0.0028,-4.525
260.5,0.0035,-4.715
260.599,0.0042,-4.79
260.7,0.0011,-4.97
260.801,-0.00175,-3.685
260.9,0.0032,-3.76
261,0,-3.865
261.1,0.00065,-3.755
261.2,0.0023,-3.79
261.299,-0.00055,-3.74
261.399,0.00405,-3.84
261.5,0.00135,-3.705
261.6,0.0008,-3.74
261.7,0.0044,-4.77
261.8,0.0002,-4.22
261.9,-0.00135,-4.58
262,0.00305,-4.66
262.1,0.00445,-5.01
262.201,0.0039,-5.15
262.301,-0.0028,-5.295
262.4,-0.0011,-5.325
262.5,-0.0009,-5.305
262.6,-0.00105,-5.335
262.699,0.00175,-5.385
262.8,-0.00265,-5.4
262.899,0.00085,-5.41
263.001,-0.00325,-5.43
263.099,0.00105,-5.465
263.199,-0.0026,-5.48
263.3,-0.00215,-5.515
263.401,-0.0019,-5.54
263.5,-0.0026,-5.46
263.599,-0.00665,-4.69
263.7,-0.00165,-5.485
263.799,0.0011,-5.605
263.9,-0.0027,-5.605
264,0.0029,-5.565
264.101,-0.0053,-5.68
264.201,-0.00445,-4.275
264.3,0.0043,-5.58
264.4,0.0005,-5.435
264.501,-0.0039,-5.76
264.6,-0.0022,-5.785
264.7,0.0006,-4.775
264.8,-0.0032,-5.805
264.901,0.00355,-5.59
265,0.0029,-5.82
265.1,-0.00345,-5.985
265.2,-0.00185,-4.435
265.299,-0.0025,-4.48
265.4,-0.001,-4.48
265.501,0.00045,-4.48
265.6,0.00185,-4.855
265.7,-0.00365,-4.51
265.8,-0.0014,-4.545
265.899,-0.0031,-4.565
265.999,-0.00235,-4.565
266.099,-5E-05,-4.625
266.2,-0.0053,-4.55
266.3,0.00325,-5.29
266.4,-0.0092,-5.015
266.5,0.00115,-4.7
266.6,-0.00115,-4.595
266.701,-0.0074,-5.33
266.801,-0.0015,-6.38
266.9,-0.00305,-6.41
267.001,0.0149,-5.14
267.1,0.0026,-5.995
267.201,0.00055,-4.745
267.3,-0.0056,-6.49
267.399,-0.00675,-6.075
267.499,-0.00055,-4.81
267.599,0.00095,-4.965
267.7,-0.0042,-6.565
267.799,-0.00415,-6.675
267.9,-0.00315,-6.69
268.001,0.00855,-5.41
268.1,-0.00205,-5.245
268.2,-0.0001,-5.035
268.3,-0.0002,-5
268.4,0.0019,-5.985
268.5,-0.00505,-5.815
268.599,0.00315,-5.97
268.7,-0.0028,-5.805
268.801,-0.0011,-6.835
268.9,-0.0038,-5.495
269,0.0005,-5.175
269.1,0.00085,-5.19
269.199,-0.00135,-5.215
269.299,-0.00255,-5.25
269.4,0.0004,-5.285
269.499,-0.00115,-5.29
269.6,0.00055,-5.3
269.7,-0.0026,-7.075
269.8,-0.0013,-7.19
269.901,-0.0007,-5.38
270,0.0025,-7.075
270.1,0.0011,-5.865
270.2,-0.00175,-5.635
270.3,-0.0028,-5.67
270.4,0.003,-6.865
270.5,-0.0002,-5.565
270.601,-0.00085,-5.655
270.699,0.003,-6.955
270.8,-0.00285,-7.43
270.9,0.0023,-7.02
271,0.0026,-6.465
271.099,0.0009,-7.2
271.2,0.00155,-5.91
271.301,0.00155,-5.895
271.4,-0.00725,-6.975
271.501,0.001,-6.255
271.6,0.00135,-5.935
271.7,0.00015,-5.94
271.8,0.00075,-5.9
271.9,0.0007,-5.92
272,0.0016,-7.675
272.099,0.0019,-7.51
272.2,-0.0007,-6.49
272.3,0.00295,-7.295
272.4,-0.0005,-6.51
272.5,0.0023,-7.66
272.6,0.0013,-6.3
272.701,-0.0073,-7.26
272.8,0.00255,-7.67
272.901,0.00145,-7.16
273.001,0.0025,-7.82
273.101,0.00255,-7.715
273.2,-0.0013,-6.535
273.3,0.00345,-7.505
273.401,0.003,-7.5
273.5,-0.0012,-6.405
273.6,0.00215,-7.975
273.701,0.00255,-7.82
273.8,0.0022,-7.95
273.901,0.0025,-7.835
274,0.0016,-6.6
274.1,0.00245,-7.79
274.2,0.00235,-7.725
274.301,0.00265,-7.78
274.4,0.0025,-7.85
274.499,0.00215,-7.995
274.6,0.00235,-8.315
274.7,0.00235,-8.435
274.8,0.00225,-8.475
274.9,0.0022,-8.14
275,0.00225,-8.41
275.1,0.0023,-8.49
275.2,0.00225,-8.545
275.3,0.00265,-7.725
275.4,0.0023,-8.275
275.5,0.0023,-8.42
275.6,0.0022,-7.95
275.701,0.00245,-8.37
275.8,0.0023,-8.475
275.9,0.0023,-8.405
276.001,0.0031,-7.625
276.101,0.01435,-7.47
276.2,0.00215,-8.19
276.3,0.00155,-8.335
276.4,0.00225,-8.335
276.5,-0.0051,-7.77
276.599,-0.00225,-7.725
276.7,0.0005,-7.465
276.8,0.00425,-7.505
276.9,-0.0028,-7.635
277,0.00495,-7.61
277.1,0.00105,-7.62
277.199,0.0002,-7.565
277.3,0.0023,-8.085
277.4,0.00235,-8.375
277.501,0.00275,-7.865
277.601,-0.0004,-7.945
277.701,0.0026,-7.94
277.801,0.00515,-8.005
277.901,-0.00245,-8.03
278,0.00395,-8.11
278.1,0.00225,-8.12
278.2,0.00385,-8.08
278.3,0.0033,-8.035
278.4,0.00345,-8.09
278.499,-0.00355,-8.155
278.599,0.00525,-8.145
278.699,0.00265,-8.09
278.799,0.00275,-8.17
278.9,0.00505,-8.185
279,-0.0015,-8.36
279.1,0.00245,-8.475
279.199,0,-8.205
279.3,0.00245,-8.46
279.4,0.0025,-8.445
279.5,0.00255,-8.54
279.601,0.00475,-8.47
279.7,0.00255,-8.55
279.8,0.00255,-8.63
279.9,0.00255,-8.66
280,0.0009,-8.615
280.1,0.00255,-8.62
280.2,0.0026,-8.665
280.3,0.00255,-8.66
280.4,0.0026,-8.67
280.501,0.0029,-8.685
280.6,0.0025,-8.685
280.7,0.00255,-8.695
280.8,0.0026,-8.705
280.899,0.0023,-8.71
281,0.0026,-8.71
281.1,0.00295,-8.705
281.2,0.00265,-8.71
281.299,0.00235,-8.72
281.399,0.0024,-8.725
281.499,0.0024,-8.725
281.6,0.00275,-8.725
281.701,0.0028,-8.72
281.8,0.0027,-8.725
281.9,0.0027,-8.725
282,0.00275,-8.73
282.101,0.0028,-8.73
282.201,0.0028,-8.73
282.301,0.0028,-8.725
282.401,0.00285,-8.725
282.5,0.0027,-8.725
282.601,0.0029,-8.73
282.701,0.00295,-8.73
282.801,0.00275,-8.73
282.9,0.0027,-8.73
283,0.0027,-8.73
283.1,0.0027,-8.73
283.2,0.0027,-8.725
283.3,0.0027,-8.73
283.4,0.0027,-8.725
283.5,0.00275,-8.725
283.6,0.00275,-8.725
283.701,0.0026,-8.725
283.8,0.0027,-8.725
283.899,0.0027,-8.725
284,0.00275,-8.725
284.1,0.0027,-8.725
284.2,0.0028,-8.725
284.301,0.0028,-8.72
284.4,0.0028,-8.725
284.5,0.00285,-8.725
284.6,0.00285,-8.725
284.7,0.0028,-8.725
284.799,0.00255,-8.72
284.899,0.0026,-8.72
285,0.00265,-8.72
285.1,0.00265,-8.725
285.2,0.0025,-8.725
285.3,0.00255,-8.725
285.4,0.0025,-8.725
285.5,0.0024,-8.725
285.6,0.00255,-8.725
285.7,0.00265,-8.725
285.8,0.00265,-8.725
285.899,0.0026,-8.725
286,0.0027,-8.725
286.1,0.00265,-8.72
286.2,0.00265,-8.72
286.299,0.0027,-8.72
286.401,0.00275,-8.72
286.5,0.0026,-8.72
286.6,0.0026,-8.725
286.7,0.0026,-8.72
286.8,0.0026,-8.72
286.901,0.0026,-8.72
287,0.0026,-8.72
287.099,0.0022,-8.72
287.2,0.0026,-8.725
287.3,0.00255,-8.725
287.399,0.00245,-8.725
287.501,0.00255,-8.72
287.6,0.0027,-8.72
287.7,0.0027,-8.72
287.8,0.00265,-8.725
287.9,0.0027,-8.725
288,0.00265,-8.72
288.1,0.0027,-8.72
288.2,0.00265,-8.72
288.3,0.0026,-8.72
288.4,0.0026,-8.72
288.5,0.0026,-8.72
288.6,0.0025,-8.72
288.7,0.0026,-8.72
288.8,0.00255,-8.715
288.9,0.00255,-8.715
289.001,0.0023,-8.715
289.101,0.00225,-8.715
289.2,0.00195,-8.715
289.3,0.00245,-8.71
289.4,0.00235,-8.71
289.5,0.0023,-8.71
289.6,0.0023,-8.71
289.7,0.00225,-8.71
289.8,0.0023,-8.71
289.9,0.00235,-8.71
290.001,0.00215,-8.71
290.1,0.0023,-8.705
290.201,0.0021,-8.705
290.3,0.00235,-8.705
290.4,0.00235,-8.705
290.501,0.00205,-8.705
290.601,0.00205,-8.705
290.7,0.00215,-8.705
290.801,0.00195,-8.705
290.901,0.002,-8.705
291,0.0021,-8.705
291.101,0.00195,-8.705
291.201,0.0021,-8.705
291.3,0.0021,-8.705
291.399,0.00225,-8.705
291.5,0.0021,-8.7
291.6,0.0021,-8.7
291.7,0.00205,-8.705
291.8,0.00205,-8.7
291.901,0.0018,-8.705
292,0.00195,-8.7
292.1,0.002,-8.7
292.2,0.0019,-8.7
292.3,0.0019,-8.7
292.4,0.0019,-8.7
292.501,0.0017,-8.705
292.6,0.0019,-8.7
292.7,0.00185,-8.7
292.801,0.0016,-8.695
292.9,0.00185,-8.695
293,0.0019,-8.695
293.101,0.00155,-8.7
293.2,0.0018,-8.695
293.301,0.00145,-8.695
293.4,0.0018,-8.695
293.5,0.0018,-8.695
293.6,0.0018,-8.695
293.7,0.00175,-8.695
293.8,0.00175,-8.695
293.9,0.0017,-8.695
294.001,0.0012,-8.69
294.1,0.0016,-8.69
294.2,0.00165,-8.69
294.3,0.00165,-8.69
294.401,0.0011,-8.695
294.5,0.0016,-8.695
294.6,0.00155,-8.69
294.701,0.00155,-8.69
294.8,0.00145,-8.69
294.9,0.00145,-8.69
294.999,0.00175,-8.69
295.1,0.0014,-8.69
295.2,0.0013,-8.69
295.3,0.00125,-8.69
295.4,0.00125,-8.69
295.501,0.0009,-8.69
295.6,0.0012,-8.695
295.7,0.0012,-8.69
295.8,0.0011,-8.69
295.9,0.0011,-8.685
296,0.00105,-8.685
296.1,0.00105,-8.69
296.201,0.00085,-8.69
296.301,0.0009,-8.69
296.401,0.00085,-8.69
296.5,0.00095,-8.69
296.6,0.00095,-8.69
296.7,0.0014,-8.685
296.8,0.0009,-8.69
296.9,0.0009,-8.69
297,0.00085,-8.69
297.099,0.0013,-8.685
297.2,0.0009,-8.685
297.3,0.00075,-8.685
297.4,0.0009,-8.685
297.5,0.00085,-8.685
297.599,0.00115,-8.685
297.7,0.0009,-8.685
297.8,0.00085,-8.685
297.9,0.00085,-8.685
298,0.00085,-8.685
298.1,0.00085,-8.685
298.199,0.001,-8.685
298.3,0.00085,-8.685
298.401,0.00075,-8.685
298.501,0.0007,-8.68
298.601,0.00075,-8.68
298.7,0.0007,-8.685
298.8,0.00065,-8.685
298.9,0.0007,-8.685
299.001,0.0006,-8.685
299.1,0.0006,-8.685
299.201,0.00055,-8.685
299.3,0.00065,-8.685
299.399,0.0008,-8.685
299.499,0.00085,-8.685
299.6,0.00065,-8.685
299.7,0.0006,-8.685
299.801,0.00065,-8.685
299.901,0.00065,-8.685
300,0.00065,-8.685
300.1,0.00065,-8.685
300.2,0.0006,-8.68
300.301,0.00045,-8.68
300.4,0.00065,-8.68
300.499,0.00075,-8.675
300.602,0.00045,-8.68
300.7,0.00065,-8.68
300.8,0.00065,-8.68
300.9,0.00065,-8.68
301,0.00065,-8.68
301.1,0.0006,-8.68
301.2,0.0006,-8.68
301.3,0.00055,-8.68
301.4,0.0006,-8.68
301.499,0.0006,-8.68
301.6,0.0006,-8.675
301.7,0.0006,-8.675
301.8,0.0006,-8.675
301.9,0.0006,-8.675
302.001,0.0007,-8.68
302.1,0.0006,-8.68
302.2,0.0006,-8.68
302.3,0.00045,-8.675
302.4,0.0006,-8.675
302.501,0.0006,-8.675
302.6,0.00055,-8.68
302.7,0.00045,-8.68
302.799,0.0006,-8.68
302.9,0.00055,-8.675
303,0.0005,-8.675
303.1,0.0005,-8.675
303.2,0.0005,-8.675
303.3,0.0004,-8.675
303.4,0.0004,-8.675
303.5,0.0004,-8.675
303.6,0.00035,-8.675
303.701,0.0004,-8.675
303.799,0.00055,-8.675
303.9,0.00035,-8.675
304,0.00035,-8.67
304.1,0.0004,-8.67
304.2,0.00035,-8.665
304.3,0.00045,-8.665
304.399,0.00055,-8.665
304.5,0.00055,-8.67
304.6,0.00055,-8.67
304.701,0.00045,-8.67
304.801,0.00045,-8.67
304.901,0.0006,-8.67
305,0.0007,-8.67
305.1,0.00065,-8.67
305.2,0.00065,-8.675
305.3,0.0006,-8.675
305.399,0.0006,-8.675
305.5,0.0006,-8.67
305.6,0.00055,-8.67
305.7,0.00045,-8.67
305.8,0.0005,-8.675
305.9,0.0005,-8.67
306,0.0004,-8.67
306.1,0.00045,-8.67
306.2,0.00045,-8.67
306.3,0.00035,-8.67
306.399,0.00035,-8.67
306.5,0.0004,-8.67
306.601,0.00025,-8.67
306.7,0.0004,-8.67
306.8,0.0004,-8.665
306.899,0.00035,-8.665
307,0.00045,-8.67
307.1,0.0004,-8.67
307.2,0.00045,-8.67
307.299,0.0005,-8.67
307.4,0.00045,-8.665
307.499,0.0006,-8.665
307.6,0.00035,-8.665
307.7,0.00045,-8.67
307.8,0.00035,-8.67
307.901,0.0004,-8.665
308,0.00035,-8.665
308.101,0.0004,-8.665
308.2,0.00025,-8.665
308.3,0.0003,-8.665
308.4,0.0003,-8.665
308.499,0.00035,-8.665
308.599,0.0003,-8.665
308.7,0.0002,-8.665
308.8,0.0002,-8.665
308.901,0.0004,-8.665
309,0.00015,-8.665
309.1,0.0002,-8.665
309.201,0.00055,-8.665
309.3,0.00025,-8.665
309.399,0.0003,-8.665
309.499,0.0004,-8.665
309.6,0.0003,-8.665
309.701,0.0004,-8.665
309.8,0.0003,-8.665
309.9,0.00035,-8.665
310,0.0003,-8.665
310.099,0.0003,-8.665
310.2,0.00035,-8.665
310.299,0.0003,-8.67
310.4,0.0003,-8.665
310.501,0.0006,-8.665
310.6,0.00035,-8.665
310.7,0.0004,-8.665
310.799,0.0002,-8.665
310.9,0.00045,-8.665
311,0.00045,-8.665
311.1,0.0004,-8.665
311.2,0.00045,-8.665
311.299,0.00015,-8.665
311.399,0.00015,-8.665
311.5,0.0004,-8.665
311.6,0.00045,-8.665
311.7,0.0004,-8.665
311.8,0.00015,-8.665
311.9,0.00035,-8.665
312,0.00025,-8.66
312.1,0.00035,-8.665
312.2,0.00045,-8.665
312.299,0.0003,-8.665
312.4,0.00055,-8.66
312.5,0.0005,-8.66
312.6,0.0006,-8.66
312.7,0.0006,-8.665
312.8,0.00065,-8.665
312.9,0.00065,-8.665
313,0.00065,-8.66
313.1,0.00075,-8.66
313.2,0.0006,-8.66
313.3,0.00045,-8.66
313.4,0.00055,-8.66
313.5,0.00055,-8.66
313.601,0.00065,-8.66
313.7,0.00055,-8.66
313.8,0.00055,-8.66
313.9,0.00035,-8.66
314,0.00055,-8.66
314.1,0.0006,-8.66
314.199,0.0004,-8.66
314.3,0.0006,-8.66
314.4,0.0006,-8.66
314.5,0.0005,-8.66
314.6,0.00055,-8.66
314.7,0.00055,-8.66
314.8,0.00055,-8.66
314.9,0.00055,-8.66
315,0.00055,-8.655
315.1,0.0005,-8.66
315.2,0.00045,-8.66
315.299,0.00025,-8.66
315.4,0.0004,-8.66
315.5,0.0004,-8.66
315.6,0.00035,-8.66
315.701,0.00065,-8.66
315.801,0.00065,-8.66
315.9,0.00035,-8.66
316,0.00035,-8.66
316.101,0.0006,-8.66
316.2,0.0003,-8.655
316.299,0.00015,-8.655
316.4,0.0002,-8.655
316.5,0.0003,-8.655
316.6,0.0003,-8.66
316.7,0.00035,-8.655
316.8,0.00035,-8.655
316.9,0.0003,-8.655
317,0.0003,-8.655
317.1,0.00035,-8.655
317.2,0.0003,-8.655
317.3,0.00025,-8.655
317.4,0.0003,-8.655
317.5,0.0003,-8.655
317.599,0,-8.655
317.7,0.0003,-8.655
317.8,0.0003,-8.655
317.9,0.0003,-8.655
317.999,5E-05,-8.655
318.099,0,-8.655
318.2,0.0003,-8.655
318.3,0.0003,-8.655
318.399,0,-8.655
318.499,5E-05,-8.655
318.601,0.0006,-8.65
318.701,0.0006,-8.65
318.8,0.00035,-8.65
318.901,0.00065,-8.65
319,0.0003,-8.655
319.1,0.00025,-8.655
319.2,0.0003,-8.655
319.301,0.00055,-8.65
319.401,0.00055,-8.65
319.5,0.00035,-8.655
319.6,0.00035,-8.655
319.7,0.00075,-8.655
319.799,5E-05,-8.655
319.899,5E-05,-8.65
320,0.0004,-8.65
320.101,0.00065,-8.65
320.201,0.00065,-8.65
320.3,0.00035,-8.65
320.399,5E-05,-8.65
320.5,0.00035,-8.65
320.6,0.0003,-8.65
320.7,0.00035,-8.65
320.8,0.00035,-8.65
320.9,0.00035,-8.65
321.001,0.00055,-8.65
321.1,0.00025,-8.65
321.2,0.0003,-8.645
321.3,5E-05,-8.645
321.401,0.00025,-8.645
321.5,0.0003,-8.645
321.6,0.00025,-8.65
321.7,0.0003,-8.65
321.802,0.00085,-8.645
321.9,0.00035,-8.65
322,0.0003,-8.65
322.101,0.0005,-8.65
322.2,0.00035,-8.65
322.3,0.00035,-8.65
322.399,0.00015,-8.645
322.5,0.00045,-8.645
322.6,0.0004,-8.645
322.7,0.00045,-8.645
322.8,0.0003,-8.65
322.9,0.00035,-8.65
323,0.00035,-8.645
323.101,0.00035,-8.64
323.2,0.00035,-8.64
323.3,0.00035,-8.645
323.4,0.00035,-8.645
323.5,0.00035,-8.645
323.6,0.00035,-8.645
323.701,0.00045,-8.645
323.8,0.0003,-8.645
323.9,0.0003,-8.645
324,0.0003,-8.645
324.1,0.0003,-8.64
324.201,0.00055,-8.635
324.3,0.0003,-8.635
324.4,0.0003,-8.63
324.5,0.00025,-8.63
324.601,0.00045,-8.635
324.7,0.00025,-8.635
324.8,0.0003,-8.635
324.9,0.0003,-8.63
325,0.00025,-8.63
325.1,0.0003,-8.63
325.201,0.00025,-8.635
325.301,0.00025,-8.635
325.4,0.00025,-8.635
325.5,0.00025,-8.63
325.6,0.0002,-8.63
325.699,0.0002,-8.635
325.801,0.0002,-8.635
325.901,0.0002,-8.635
326,0.00025,-8.635
326.1,0.00025,-8.635
326.2,0.0002,-8.635
326.3,0.00025,-8.635
326.401,0.0003,-8.635
326.5,0.00025,-8.635
326.6,0.0003,-8.635
326.7,0.0003,-8.635
326.8,0.0003,-8.635
326.9,0.00025,-8.635
327,0.00025,-8.635
327.1,0.00035,-8.635
327.2,0.00035,-8.635
327.3,0.00035,-8.635
327.401,0.00025,-8.635
327.5,0.00025,-8.635
327.601,0.00025,-8.63
327.7,0.00025,-8.635
327.8,0.00015,-8.635
327.9,0.0002,-8.635
328,0.0001,-8.635
328.101,0.00015,-8.635
328.2,5E-05,-8.635
328.301,0.0001,-8.635
328.401,0.00015,-8.635
328.5,-5E-05,-8.635
328.599,0,-8.635
328.7,-5E-05,-8.635
328.8,-5E-05,-8.635
328.9,-5E-05,-8.635
329,-5E-05,-8.635
329.099,0,-8.635
329.2,-5E-05,-8.635
329.3,-5E-05,-8.635
329.399,-5E-05,-8.635
329.499,-0.00015,-8.635
329.6,-0.0001,-8.635
329.7,-5E-05,-8.64
329.8,-5E-05,-8.64
329.9,-5E-05,-8.64
330,-5E-05,-8.64
330.101,0,-8.64
330.2,-0.0001,-8.64
330.299,-0.0001,-8.64
330.4,-5E-05,-8.645
330.5,-5E-05,-8.645
330.6,-0.0001,-8.64
330.7,-5E-05,-8.635
330.801,0,-8.635
330.9,-0.00015,-8.635
331,-0.0002,-8.635
331.101,-5E-05,-8.635
331.201,-0.0001,-8.635
331.301,-0.0001,-8.63
331.4,-0.0002,-8.635
331.5,-0.00025,-8.635
331.6,-0.00025,-8.635
331.7,-0.00025,-8.635
331.8,-0.0002,-8.635
331.9,-0.0003,-8.635
332.001,-0.00025,-8.635
332.1,-0.0003,-8.635
332.2,-0.0003,-8.635
332.3,-0.00025,-8.635
332.4,-0.00025,-8.635
332.5,-0.0003,-8.635
332.6,-0.0003,-8.635
332.7,-0.0003,-8.635
332.801,-0.00035,-8.635
332.9,-0.0003,-8.635
333,-0.0003,-8.635
333.099,-0.00035,-8.635
333.2,-0.00035,-8.63
333.3,-0.00035,-8.635
333.4,-0.00035,-8.635
333.5,-0.0006,-8.635
333.6,-0.00045,-8.635
333.701,-0.00045,-8.635
333.801,-0.00045,-8.63
333.9,-0.00045,-8.635
334.001,-0.00055,-8.635
334.101,-0.00055,-8.635
334.201,-0.0006,-8.635
334.3,-0.00045,-8.635
334.4,-0.0004,-8.635
334.5,-0.0004,-8.635
334.6,-0.00045,-8.635
334.7,-0.00045,-8.64
334.8,-0.00045,-8.635
334.901,-0.00075,-8.635
335.001,-0.00075,-8.635
335.1,-0.00045,-8.635
335.2,-0.00045,-8.635
335.301,-0.00085,-8.64
335.401,-0.00105,-8.635
335.5,-0.0005,-8.64
335.6,-0.0005,-8.635
335.7,-0.00055,-8.635
335.8,-0.0005,-8.635
335.9,-0.00055,-8.635
336,-0.00055,-8.635
336.1,-0.0006,-8.635
336.199,-0.00075,-8.63
336.3,-0.00075,-8.63
336.4,-0.0006,-8.63
336.5,-0.0006,-8.63
336.6,-0.00065,-8.635
336.701,-0.00095,-8.635
336.8,-0.00065,-8.635
336.9,-0.00065,-8.63
337.001,-0.00095,-8.63
337.101,-0.001,-8.63
337.2,-0.00075,-8.63
337.299,-0.00085,-8.635
337.4,-0.00075,-8.63
337.5,-0.00075,-8.635
337.599,-0.00085,-8.63
337.7,-0.00085,-8.63
337.801,-0.001,-8.63
337.9,-0.00095,-8.63
338,-0.001,-8.63
338.1,-0.0009,-8.63
338.199,-0.001,-8.63
338.3,-0.00095,-8.63
338.399,-0.00105,-8.63
338.499,-0.00105,-8.625
338.6,-0.001,-8.625
338.701,-0.0012,-8.625
338.8,-0.001,-8.62
338.9,-0.00105,-8.62
339,-0.00105,-8.62
339.099,-0.001,-8.625
339.2,-0.0011,-8.625
339.3,-0.0011,-8.625
339.401,-0.0014,-8.625
339.5,-0.00115,-8.625
339.6,-0.00115,-8.625
339.699,-0.001,-8.63
339.799,-0.00105,-8.625
339.9,-0.0012,-8.63
340,-0.0012,-8.625
340.1,-0.0012,-8.625
340.2,-0.00125,-8.625
340.3,-0.0013,-8.625
340.4,-0.0013,-8.625
340.5,-0.0013,-8.63
340.602,-0.00165,-8.63
340.701,-0.0016,-8.625
340.8,-0.00145,-8.625
340.9,-0.0014,-8.63
340.999,-0.0011,-8.63
341.1,-0.00145,-8.63
341.201,-0.0017,-8.63
341.301,-0.00165,-8.63
341.4,-0.00145,-8.625
341.5,-0.0015,-8.625
341.6,-0.0016,-8.63
341.699,-0.00125,-8.63
341.8,-0.0016,-8.63
341.9,-0.00155,-8.63
342,-0.0016,-8.625
342.1,-0.0016,-8.625
342.2,-0.00155,-8.625
342.301,-0.00175,-8.625
342.4,-0.00165,-8.63
342.5,-0.00165,-8.625
342.6,-0.00165,-8.625
342.7,-0.00165,-8.625
342.8,-0.0016,-8.625
342.9,-0.0016,-8.625
343,-0.00165,-8.625
343.1,-0.00165,-8.625
343.199,-0.00145,-8.625
343.299,-0.00155,-8.625
343.399,-0.00165,-8.62
343.5,-0.0017,-8.625
343.599,-0.0015,-8.625
343.7,-0.00175,-8.625
343.8,-0.0018,-8.625
343.899,-0.00155,-8.62
344,-0.00185,-8.62
344.1,-0.0019,-8.62
344.2,-0.0019,-8.62
344.3,-0.00195,-8.62
344.401,-0.00215,-8.62
344.5,-0.002,-8.615
344.6,-0.002,-8.615
344.701,-0.00205,-8.615
344.8,-0.00205,-8.615
344.901,-0.0021,-8.615
345,-0.00215,-8.62
345.1,-0.0021,-8.62
345.2,-0.0021,-8.615
345.299,-0.0019,-8.62
345.399,-0.0019,-8.615
