Zeit t / s,Spannung U_A1 / V,Spannung U_B1 / V
0,0.0098,-2.1555
0.101,0.0118,-2.1765
0.201,0.01145,-2.184
0.3,0.0072,-2.178
0.4,0.0122,-2.208
0.5,0.0102,-2.1795
0.601,0.01425,-2.1585
0.7,0.01185,-2.148
0.8,0.00985,-2.103
0.901,0.01275,-2.0115
1,0.01115,-1.8855
1.1,0.0104,-1.815
1.201,0.0138,-1.7535
1.301,0.011,-1.5945
1.4,0.0104,-1.446
1.501,0.0125,-1.293
1.6,0.01705,-1.1865
1.7,0.02265,-0.6915
1.801,0.0322,
1.9,0.0353,
2,0.04255,
2.101,0.051,-0.02795
2.2,0.0582,0.00745
2.301,0.07015,-0.0014
2.4,0.07525,0.01525
2.5,0.09225,0.005
2.601,,0.02435
2.7,0.1896,0.0415
2.801,0.19125,0.02655
2.9,0.19065,0.02225
3,0.192,0.02345
3.101,0.19485,0.0078
3.201,0.19215,0.02435
3.3,0.1908,0.0235
3.4,0.19155,-0.005
3.5,0.19005,0.02125
3.6,0.18915,0.03515
3.7,0.18945,0.0244
3.801,0.19065,0.02455
3.9,0.18975,0.0212
4.001,0.19125,0.02145
4.1,0.1908,0.02295
4.2,0.192,0.0234
4.299,0.1911,0.03485
4.4,0.1914,0.0353
4.499,0.1917,0.03455
4.601,0.19545,0.0109
4.7,0.1923,0.0221
4.8,0.1923,0.0215
4.899,0.19185,0.03535
5.001,0.19245,0.0228
5.1,0.19185,0.03345
5.201,0.19245,0.022
5.3,0.19275,0.02455
5.4,0.19305,0.0231
5.501,0.19485,0.01055
5.601,0.195,0.0118
5.7,0.1929,0.02475
5.8,0.19245,0.0259
5.901,0.1944,0.0138
6.001,0.19335,0.01405
6.1,0.19245,0.0274
6.2,0.19305,0.0275
6.3,0.19305,0.02705
6.401,0.1938,0.01425
6.5,0.1929,0.0277
6.6,0.1932,0.0287
6.699,0.192,0.03845
6.801,0.19485,0.01635
6.9,0.1932,0.0285
7.001,0.1923,0.02865
7.1,0.19245,0.029
7.201,0.1932,0.02825
7.3,0.1923,0.02895
7.401,0.19425,0.01695
7.501,0.1929,0.0165
7.601,0.19425,0.0172
7.7,0.19305,0.0294
7.8,0.1923,0.0301
7.9,0.1923,0.02975
8.001,0.19395,0.01785
8.1,0.19245,0.03075
8.201,0.19215,0.03065
8.301,0.1929,0.0309
8.4,0.19185,0.0401
8.5,0.19185,0.0399
8.6,0.19185,0.04075
8.7,0.1929,0.0318
8.801,0.19215,0.0319
8.9,0.19245,0.0325
9.001,0.1926,0.0325
9.1,0.19215,0.03165
9.201,0.1923,0.03195
9.3,0.19245,0.032
9.4,0.192,0.03255
9.501,0.19245,0.03345
9.6,0.19245,0.03275
9.701,0.192,0.0329
9.801,0.19275,0.0332
9.9,0.1917,0.04115
10,0.1923,0.03415
10.1,0.1926,0.0343
10.2,0.192,0.0341
10.301,0.192,0.0345
10.4,0.1917,0.0421
10.5,0.19245,0.03505
10.6,0.192,0.0353
10.7,0.192,0.03545
10.8,0.1923,0.0358
10.9,0.19245,0.03525
11.001,0.192,0.0358
11.1,0.19185,0.03645
11.201,0.19245,0.03635
11.3,0.19215,0.03635
11.4,0.192,0.0371
11.5,0.192,0.03705
11.601,0.19245,0.0261
11.7,0.19185,0.0377
11.801,0.192,0.03775
11.9,0.19215,0.03755
12.001,0.192,0.038
12.1,0.1914,0.0434
12.2,0.19215,0.0382
12.301,0.19185,0.03835
12.4,0.19185,0.039
12.501,0.19185,0.03905
12.6,0.192,0.03905
12.7,0.192,0.0387
12.8,0.1917,0.00305
12.9,0.19185,0.0395
13.001,0.19185,0.0399
13.101,0.192,0.0394
13.2,0.19185,0.03955
13.301,0.19185,0.0401
13.4,0.1917,0.04035
13.5,0.19185,0.04045
13.6,0.19185,0.0399
13.701,0.19215,0.031
13.8,0.1917,0.04105
13.901,0.1929,0.03205
14,0.19185,0.0406
14.101,0.19215,0.0318
14.201,0.1926,0.0323
14.301,0.19185,0.0411
14.399,0.19125,0.04345
14.5,0.1917,0.04195
14.6,0.19125,0.04375
14.7,0.1917,0.0413
14.8,0.1917,0.04185
14.9,0.1917,0.04225
15.001,0.1923,0.03395
15.1,0.1917,0.042
15.201,0.192,0.0357
15.3,0.1917,0.0426
15.4,0.19155,0.04185
15.5,0.19155,0.0418
15.601,0.19155,0.0424
15.7,0.19155,0.0436
15.8,0.19155,0.0448
15.901,0.192,0.0421
16.001,0.1914,0.0509
16.1,0.1914,0.053
16.2,0.1914,0.05605
16.301,0.19185,0.0495
16.4,0.1914,0.06255
16.501,0.19185,0.0474
16.6,0.19095,0.05635
16.7,0.1914,0.05875
16.8,0.1914,0.05545
16.9,0.1914,0.05445
17.001,0.1917,0.0514
17.1,0.1911,0.057
17.201,0.19125,0.0567
17.3,0.1911,0.0581
17.401,0.19095,0.05955
17.501,0.19095,0.0611
17.6,0.1911,0.05885
17.701,0.1914,0.0536
17.801,0.19125,0.05365
17.9,0.1908,0.06355
18.001,0.19125,0.06095
18.101,0.1911,0.0618
18.201,0.19065,0.06225
18.301,0.19065,0.05795
18.4,0.19065,0.0507
18.501,0.1905,0.05425
18.6,0.1905,0.052
18.701,0.1908,0.04795
18.801,0.1908,0.047
18.9,0.1902,0.0532
19.001,0.1902,0.0514
19.1,0.1899,0.05065
19.2,0.1896,0.054
19.301,0.18915,0.05435
19.4,0.18795,0.05485
19.5,0.18795,
19.6,0.1872,0.1131
19.7,0.1869,0.1137
19.801,0.1872,0.11265
19.901,0.1869,0.11205
20,0.18585,0.1128
20.101,0.18525,0.1173
20.2,0.1854,0.04425
20.3,0.18465,0.0423
20.4,0.1833,0.04125
20.501,0.18195,0.04185
20.601,0.1797,0.0405
20.701,0.17775,0.0405
20.8,0.1758,0.04005
20.902,0.17205,0.04905
21.001,0.16965,0.03915
21.1,0.16785,0.03825
21.201,0.16545,0.0369
21.3,0.16365,0.03555
21.401,0.162,0.036
21.5,0.16035,0.03495
21.601,0.159,0.03465
21.701,0.15795,0.03405
21.8,0.1566,
21.899,0.15585,0.02875
22,0.15555,0.0343
22.101,0.1548,0.03415
22.2,0.1539,0.03405
22.3,0.15315,0.03365
22.401,0.15225,0.0335
22.501,0.1515,0.0332
22.601,0.15075,0.03295
22.7,0.14985,0.02525
22.8,0.1494,0.0324
22.9,0.14865,0.03225
23.001,0.1485,0.0364
23.101,0.1473,0.03175
23.2,0.1467,0.0317
23.3,0.1461,0.03145
23.4,0.1455,0.03105
23.501,0.1449,0.031
23.6,0.144,0.0219
23.701,0.1437,0.0307
23.8,0.14325,0.0303
23.901,0.14325,0.0353
24.001,0.14205,0.02965
24.101,0.1416,0.02955
24.2,0.1407,0.01915
24.3,0.14025,0.0187
24.4,0.1401,0.02865
24.501,0.14025,0.0347
24.6,0.13935,0.02805
24.701,0.1389,0.0276
24.801,0.13845,0.0273
24.9,0.138,0.02705
25,0.13755,0.02645
25.1,0.1371,0.02635
25.2,0.13635,0.0138
25.301,0.13635,0.02515
25.4,0.1359,0.02445
25.5,0.13545,0.02415
25.601,0.13545,0.03195
25.701,0.1347,0.02365
25.801,0.13425,0.02285
25.902,0.13485,0.036
26,0.1335,0.02245
26.101,0.13305,0.02155
26.201,0.1329,0.0357
26.301,0.13215,0.02085
26.4,0.13185,0.0204
26.5,0.13065,0.00555
26.6,0.13035,0.0198
26.7,0.1299,0.0043
26.801,0.13035,0.0189
26.9,0.13005,0.0184
27,0.12975,0.01775
27.101,0.1293,0.0173
27.2,0.129,0.0168
27.3,0.1287,0.01615
27.4,0.1284,0.0161
27.501,0.1284,0.0271
27.6,0.12765,0.01525
27.701,0.12735,0.0145
27.8,0.12705,0.01415
27.9,0.1266,0.0138
28.001,0.12675,0.02485
28.1,0.12585,0.01275
28.2,0.12555,0.01245
28.301,0.12525,0.01215
28.401,0.1248,0.0112
28.5,0.12435,0.0109
28.6,0.12405,0.01045
28.701,0.1245,0.0232
28.8,0.12345,0.0098
28.901,0.123,0.00935
29,0.1221,0.0307
29.1,0.1218,-0.00735
29.2,0.1215,-0.00765
29.3,0.1218,0.00665
29.401,0.12225,0.0207
29.5,0.12105,0.00615
29.601,0.1209,0.006
29.7,0.1206,0.00505
29.8,0.12015,0.01965
29.901,0.12075,0.0193
30.001,0.1197,0.00325
30.101,0.1194,0.003
30.2,0.11835,-0.0121
30.3,0.1188,0.00195
30.401,0.1185,0.002
30.5,0.11835,0.0013
30.6,0.11805,0.00025
30.7,0.1176,5E-05
30.801,0.1182,0.0154
30.9,0.11715,-0.0006
31.001,0.1176,0.01475
31.101,0.1164,-0.00105
31.2,0.1152,-0.015
31.3,0.1158,-0.0019
31.401,0.1164,0.0139
31.5,0.1152,-0.00215
31.6,0.11505,-0.0028
31.701,0.1155,0.0127
31.8,0.11445,-0.00315
31.901,0.11505,0.0127
32,0.114,-0.00445
32.101,0.1146,0.00975
32.2,0.11355,-0.0054
32.3,0.11325,-0.0062
32.401,0.11295,-0.0062
32.5,0.1128,-0.0067
32.601,0.1131,0.0073
32.701,0.11205,-0.00735
32.801,0.1119,-0.008
32.9,0.111,-0.02075
33,0.11145,-0.0083
33.101,0.11115,-0.0082
33.2,0.11025,-0.02185
33.3,0.1107,-0.009
33.401,0.111,0.00505
33.501,0.1101,-0.00925
33.6,0.1098,-0.0097
33.7,0.10965,-0.0103
33.801,0.10995,0.0042
33.901,0.10905,-0.0101
34,0.1089,-0.01055
34.1,0.1086,-0.0112
34.201,0.10905,0.00275
34.301,0.10815,-0.01145
34.4,0.10785,-0.0116
34.501,0.1077,-0.0118
34.6,0.1074,-0.0123
34.7,0.1071,-0.01225
34.8,0.1068,-0.0122
34.901,0.1074,0.0016
35,0.1065,-0.0129
35.1,0.1059,-0.02615
35.2,0.1056,-0.02605
35.3,0.1053,-0.0262
35.4,0.10545,-0.01325
35.501,0.1062,0
35.601,0.1059,-0.00025
35.701,0.1047,-0.0136
35.8,0.10455,-0.0141
35.9,0.10425,-0.01405
36.001,0.105,-0.00025
36.101,0.1047,-0.00055
36.2,0.10365,-0.00075
36.3,0.1035,-0.0149
36.4,0.1032,-0.0146
36.501,0.10395,-0.0017
36.6,0.1029,-0.01535
36.7,0.1026,-0.01475
36.801,0.1023,-0.0152
36.9,0.1023,-0.0155
37,0.10185,-0.0157
37.1,0.10185,-0.0156
37.201,0.10155,-0.016
37.3,0.1014,-0.0159
37.4,0.1011,-0.0162
37.501,0.1008,-0.01625
37.6,0.10065,-0.01645
37.7,0.1005,-0.017
37.801,0.1002,-0.0038
37.9,0.10005,-0.0308
38,0.09975,-0.03065
38.1,0.09975,-0.0179
38.2,0.09945,-0.0176
38.3,0.09915,-0.0182
38.4,0.099,-0.0182
38.5,0.09885,-0.0323
38.6,0.09855,-0.03245
38.7,0.0984,-0.03235
38.801,0.09825,-0.0195
38.9,0.0981,-0.0328
39,0.0981,-0.0331
39.1,0.09765,-0.0333
39.2,0.0975,-0.02055
39.3,0.0972,-0.02095
39.401,0.0978,-0.0087
39.5,0.0969,-0.0218
39.601,0.09735,0.0052
39.701,0.09645,-0.02235
39.8,0.0963,-0.02275
39.901,0.096,-0.0229
40,0.096,-0.0234
40.101,0.0957,-0.0242
40.2,0.0957,-0.0244
40.3,0.09555,-0.03675
40.4,0.0957,-0.03705
40.5,0.09525,-0.0372
40.6,0.0948,-0.0259
40.7,0.09465,-0.02585
40.801,0.0948,-0.0132
40.901,0.09465,-0.0134
41.001,0.0942,-0.02685
41.101,0.0939,-0.02725
41.201,0.0936,-0.0273
41.301,0.0936,-0.0279
41.4,0.09405,-0.04005
41.5,0.0933,-0.0284
41.6,0.093,-0.02835
41.701,0.093,-0.0157
41.801,0.09285,-0.01575
41.901,0.0927,-0.01615
42,0.0924,-0.0305
42.101,0.09225,-0.0307
42.2,0.09195,-0.0311
42.3,0.09195,-0.03085
42.4,0.09165,-0.0312
42.501,0.0915,-0.01835
42.601,0.09135,-0.0321
42.7,0.0921,-0.0439
42.8,0.09105,-0.03285
42.901,0.09105,-0.03325
43,0.09075,-0.03385
43.099,0.0915,-0.04505
43.2,0.09045,-0.0344
43.3,0.09045,-0.0348
43.402,0.0906,-0.00945
43.501,0.09015,-0.0358
43.6,0.08985,-0.03565
43.7,0.0906,-0.0462
43.8,0.0897,-0.03645
43.9,0.08955,-0.03665
44,0.0894,-0.03755
44.101,0.08925,-0.03775
44.2,0.0894,-0.04765
44.3,0.0897,-0.048
44.4,0.08895,-0.0392
44.5,0.0891,-0.02795
44.6,0.08865,-0.03985
44.7,0.08865,-0.04095
44.8,0.08865,-0.0408
44.9,0.08835,-0.0415
45.001,0.0882,-0.04195
45.1,0.0882,-0.04235
45.201,0.0873,-0.0312
45.301,0.08805,-0.0432
45.4,0.08775,-0.05015
45.5,0.08775,-0.04405
45.601,0.08745,-0.0442
45.7,0.0873,-0.0447
45.8,0.08715,-0.04495
45.901,0.08625,-0.03455
45.999,0.08685,-0.0516
46.101,0.08655,-0.0462
46.2,0.0864,-0.0518
46.3,0.08655,-0.047
46.4,0.08595,-0.047
46.501,0.08565,-0.03775
46.6,0.0861,-0.0476
46.701,0.08535,-0.03845
46.8,0.08565,-0.0482
46.9,0.08565,-0.04845
47.001,0.0852,-0.04885
47.1,0.0849,-0.0492
47.201,0.0852,-0.04935
47.3,0.0846,-0.0495
47.401,0.08475,-0.0421
47.501,0.0846,-0.05015
47.6,0.0855,-0.05335
47.7,0.08535,-0.05365
47.801,0.08415,-0.05065
47.9,0.0837,-0.0509
48.001,0.08385,-0.0512
48.1,0.0837,-0.05145
48.2,0.08325,-0.0515
48.301,0.08355,-0.04585
48.4,0.0834,-0.05185
48.501,0.08295,-0.04665
48.6,0.08295,-0.05215
48.7,0.0831,-0.0522
48.801,0.08265,-0.0476
48.901,0.0828,-0.0526
49,0.08265,-0.0528
49.101,0.08235,-0.05335
49.2,0.08625,-0.05235
49.3,0.0822,-0.05325
49.4,0.0822,-0.053
49.501,0.0825,-0.0535
49.6,0.0867,-0.0518
49.701,0.08265,-0.0534
49.8,0.0825,-0.0538
49.901,0.0813,-0.05075
50.001,0.08265,-0.0532
50.1,0.0828,-0.05335
50.201,0.08265,-0.0533
50.3,0.0873,-0.0498
50.401,0.0828,-0.05345
50.501,0.0828,-0.05315
50.6,0.08775,-0.04915
50.7,0.0831,-0.0533
50.8,0.0831,-0.0526
50.901,0.08355,-0.0526
51.001,0.08355,-0.0526
51.1,0.0879,-0.04735
51.2,0.08385,-0.0522
51.301,0.08385,-0.05225
51.4,0.08385,-0.0516
51.501,0.07995,-0.0536
51.6,0.08415,-0.05145
51.7,0.084,-0.05075
51.801,0.0843,-0.051
51.9,0.08445,-0.0506
52.001,0.08445,-0.05005
52.1,0.0846,-0.05015
52.2,0.08475,-0.04995
52.301,0.0804,-0.05345
52.401,0.0849,-0.0489
52.5,0.08505,-0.04885
52.601,0.08085,-0.05295
52.7,0.0852,-0.0483
52.8,0.0852,-0.0479
52.901,0.08115,-0.0527
53,0.0852,-0.0475
53.1,0.0852,-0.0465
53.201,0.08175,-0.0516
53.3,0.08535,-0.04625
53.4,0.08535,-0.0453
53.501,0.0819,-0.05075
53.601,0.08205,-0.0505
53.701,0.0849,-0.0444
53.8,0.08475,-0.04415
53.901,0.08445,-0.04375
53.999,0.08355,-0.034
54.1,0.08415,-0.0426
54.2,0.08385,-0.0425
54.3,0.0837,-0.0414
54.4,0.08355,-0.0411
54.501,0.0831,-0.0481
54.6,0.0831,-0.03995
54.701,0.07575,-0.0533
54.8,0.08295,-0.03895
54.901,0.08265,-0.03865
55,0.0825,-0.0378
55.101,0.08235,-0.0373
55.2,0.0837,-0.025
55.3,0.0822,-0.03595
55.4,0.0822,-0.03525
55.5,0.08175,-0.03495
55.601,0.08235,-0.0438
55.7,0.0816,-0.03375
55.801,0.0819,-0.04305
55.9,0.08115,-0.03245
56.001,0.08145,-0.0421
56.1,0.081,-0.0315
56.2,0.08085,-0.0309
56.3,0.08085,-0.03015
56.4,0.08085,-0.03975
56.501,0.08055,-0.03975
56.6,0.08145,-0.0276
56.701,0.0804,-0.03845
56.801,0.08025,-0.0379
56.9,0.0813,-0.02595
57,0.0813,-0.0248
57.1,0.0792,-0.01175
57.2,0.07905,-0.01095
57.3,0.0789,-0.01035
57.4,0.08025,-0.02185
57.5,0.0798,-0.0218
57.6,0.0798,-0.0206
57.701,0.07905,-0.0333
57.8,0.07935,-0.01915
57.901,0.0789,-0.0183
58,0.0777,-0.0052
58.1,0.07755,-0.00525
58.2,0.07725,-0.01645
58.301,0.0783,-0.0153
58.4,0.078,-0.0154
58.5,0.078,-0.01395
58.601,0.07905,-0.0264
58.701,0.07755,-0.01235
58.8,0.07575,0
58.9,0.0756,-0.0003
59.001,0.07695,-0.0105
59.1,0.07695,-0.0102
59.201,0.07785,-0.02185
59.301,0.0777,-0.0212
59.401,0.0771,-0.02045
59.5,0.0762,-0.0066
59.6,0.0759,-0.00635
59.701,0.07665,-0.0175
59.8,0.07545,-0.00445
59.901,0.07545,-0.0044
60.001,0.075,-0.00355
60.101,0.075,-0.0026
60.2,0.0723,0.0093
60.3,0.07245,0.01065
60.4,0.07185,0.0114
60.5,0.07395,0
60.601,0.07515,-0.0107
60.7,0.07335,0.0016
60.8,0.07365,0.00305
60.9,0.0732,0.00365
61,0.07365,0.0038
61.101,0.07455,-0.0075
61.201,0.0744,-0.00695
61.301,0.07395,-0.0057
61.4,0.07245,0.0066
61.501,0.07365,-0.00495
61.601,0.0717,0.00805
61.7,0.07005,0.019
61.8,0.0699,0.02
61.9,0.07065,0.00895
62,0.0705,0.00915
62.1,0.07005,0.00995
62.2,0.0702,0.01005
62.3,0.06975,0.01165
62.4,0.06915,0.0228
62.5,0.069,0.02305
62.6,0.0696,0.0127
62.701,0.0711,0.0016
62.8,0.06855,0.02375
62.9,0.06885,0.0144
63.001,0.06885,0.01475
63.1,0.0687,0.01475
63.2,0.06855,0.01555
63.3,0.0687,0.01595
63.4,0.06825,0.01625
63.501,0.0684,0.0172
63.6,0.06765,0.0263
63.7,0.06795,0.0181
63.8,0.06795,0.01815
63.901,0.069,0.0074
64,0.0675,0.0196
64.1,0.0675,0.01955
64.2,0.06735,0.02005
64.3,0.0672,0.02075
64.401,0.0672,0.0205
64.5,0.06705,0.00995
64.6,0.0669,0.0209
64.7,0.06675,0.02195
64.802,0.06915,-0.00045
64.9,0.06645,0.0226
65.001,0.0663,0.0223
65.1,0.0663,0.02325
65.2,0.06615,0.0239
65.301,0.06645,0.01355
65.4,0.06585,0.02485
65.5,0.06585,0.0241
65.6,0.0657,0.0249
65.701,0.06555,0.0249
65.8,0.0654,0.02555
65.9,0.0654,0.0264
66.001,0.0657,0.0162
66.1,0.0651,0.0264
66.2,0.06495,0.0268
66.3,0.0648,0.0275
66.401,0.06525,0.01895
66.5,0.0645,0.02845
66.601,0.06495,0.0194
66.7,0.06435,0.0292
66.8,0.0642,0.00975
66.901,0.0645,0.0205
67.001,0.06405,0.03015
67.101,0.0639,0.03035
67.201,0.06375,0.03055
67.3,0.0633,0.0342
67.401,0.0636,0.031
67.501,0.06345,0.03135
67.6,0.063,0.03435
67.7,0.06315,0.03185
67.801,0.06345,0.02435
67.9,0.06315,0.0322
68.001,0.0633,0.02435
68.101,0.06285,0.0323
68.201,0.06315,0.0248
68.3,0.0627,0.0327
68.4,0.06255,0.03275
68.5,0.0624,0.033
68.601,0.06225,0.03315
68.701,0.06225,0.0333
68.8,0.06165,0.03385
68.9,0.06195,0.0335
69.001,0.0618,0.03355
69.1,0.0618,0.0338
69.201,0.06165,0.0337
69.3,0.06105,0.0333
69.4,0.06135,0.03395
69.501,0.0612,0.034
69.6,0.0612,0.0341
69.7,0.06105,0.03425
69.8,0.0609,0.031
69.9,0.0609,0.03425
70.001,0.06105,0.0314
70.101,0.06075,0.03415
70.201,0.0606,0.03425
70.3,0.0606,0.0342
70.401,0.06045,0.0343
70.5,0.0603,0.0342
70.601,0.0606,0.0324
70.701,0.06015,0.03415
70.8,0.0594,0.0313
70.901,0.06,0.03405
71,0.05925,0.03095
71.1,0.05895,0.031
71.2,0.05955,0.03415
71.3,0.0594,0.034
71.4,0.05925,0.03405
71.5,0.0591,0.0338
71.601,0.0594,0.03365
71.7,0.05895,0.03355
71.8,0.0588,0.0335
71.9,0.05865,0.0334
72,0.05805,0.02935
72.1,0.05835,0.03355
72.2,0.05835,0.0333
72.3,0.0582,0.03305
72.4,0.0582,0.03305
72.5,0.0582,0.03285
72.6,0.05805,0.0326
72.701,0.0579,0.0328
72.8,0.05775,0.03255
72.901,0.05805,0.0342
73,0.0576,0.03245
73.101,0.0579,0.0344
73.2,0.05745,0.03225
73.3,0.0573,0.0319
73.401,0.0573,0.03185
73.5,0.05715,0.0321
73.6,0.057,0.03165
73.701,0.0573,0.03425
73.799,0.05625,0.02575
73.9,0.05655,0.0311
74,0.0564,0.03105
74.101,0.0564,0.03095
74.2,0.05625,0.0309
74.3,0.05565,0.02445
74.401,0.05595,0.03025
74.5,0.0555,0.0239
74.6,0.0558,0.02985
74.7,0.05565,0.02975
74.8,0.05565,0.0297
74.9,0.0555,0.0295
75,0.05505,0.02145
75.1,0.05505,0.02125
75.2,0.05505,0.0284
75.3,0.05505,0.02835
75.399,0.0546,0.0206
75.5,0.05475,0.02785
75.599,0.05445,0.01995
75.701,0.0552,0.03235
75.801,0.0546,0.02735
75.9,0.05415,0.01845
76,0.0543,0.0267
76.1,0.0543,0.02665
76.201,0.05415,0.0263
76.3,0.054,0.0264
76.401,0.05385,0.026
76.5,0.05385,0.02575
76.6,0.0537,0.02555
76.7,0.0537,0.02535
76.801,0.05355,0.02505
76.9,0.0534,0.0249
77,0.0534,0.0244
77.101,0.0537,0.0304
77.201,0.05355,0.0302
77.301,0.0531,0.02335
77.401,0.05295,0.0234
77.5,0.05265,0.01125
77.601,0.0528,0.0226
77.7,0.0528,0.02175
77.801,0.0531,0.02885
77.9,0.05265,0.0214
78.001,0.0525,0.02125
78.1,0.05235,0.02085
78.2,0.05235,0.0205
78.3,0.0522,0.0198
78.401,0.05235,0.02775
78.5,0.05205,0.02745
78.601,0.0519,0.01905
78.7,0.05175,0.01875
78.801,0.05175,0.0182
78.9,0.0516,0.0181
79,0.05145,0.01795
79.1,0.05145,0.01695
79.2,0.05115,0.017
79.3,0.0513,0.01665
79.401,0.05145,0.0256
79.5,0.051,0.01545
79.6,0.051,0.0154
79.699,0.0501,-0.00015
79.801,0.05085,0.0141
79.9,0.04995,-0.00085
80,0.0507,0.0242
80.1,0.05055,0.0135
80.2,0.05055,0.01255
80.3,0.0504,0.0123
80.401,0.0504,0.01195
80.5,0.0501,0.0114
80.6,0.0501,0.0111
80.701,0.04995,0.01115
80.799,0.04905,-0.00495
80.9,0.0498,0.0103
81,0.04965,0.0095
81.1,0.0486,-0.0056
81.2,0.04935,0.0087
81.3,0.0492,0.00825
81.4,0.0492,0.008
81.501,0.04965,0.01995
81.6,0.0489,0.007
81.701,0.04875,0.0072
81.8,0.048,-0.0079
81.9,0.04845,0.0067
82.001,0.04845,0.00605
82.1,0.0483,0.00565
82.2,0.0483,0.00535
82.301,0.04815,0.02685
82.4,0.048,0.0045
82.5,0.048,0.004
82.6,0.048,0.00375
82.701,0.04845,0.0179
82.8,0.0477,0.003
82.9,0.04755,0.003
83.003,0.04875,0.026
83.101,0.04755,0.002
83.2,0.0474,0.00185
83.301,0.04815,0.0256
83.401,0.048,0.01545
83.501,0.04725,0.00065
83.6,0.0471,0.0004
83.7,0.04695,-0.0004
83.801,0.0471,-0.0006
83.9,0.0459,-0.0144
84,0.0468,-0.00135
84.1,0.0468,-0.00155
84.201,0.0474,0.0124
84.301,0.0465,-0.00275
84.4,0.04635,-0.00285
84.5,0.04635,-0.00365
84.6,0.0462,-0.00365
84.701,0.0468,0.01015
84.8,0.0459,-0.0049
84.901,0.04665,0.0096
85,0.0459,-0.00585
85.1,0.04575,-0.0066
85.2,0.0456,-0.00695
85.299,0.0447,-0.0196
85.4,0.0447,-0.0209
85.5,0.0453,-0.0078
85.6,0.04515,-0.00875
85.7,0.04515,-0.00925
85.8,0.04485,-0.00915
85.901,0.04485,-0.0093
86,0.0447,-0.0102
86.1,0.0447,-0.011
86.2,0.04455,-0.0113
86.301,0.04455,-0.0114
86.4,0.04395,-0.0256
86.5,0.0438,-0.0258
86.6,0.0441,-0.0128
86.701,0.04485,0.00065
86.801,0.04395,-0.0136
86.9,0.04395,-0.0143
87,0.0438,-0.01435
87.101,0.04455,-0.0012
87.201,0.0435,-0.01515
87.3,0.04335,-0.0289
87.4,0.04335,-0.02915
87.5,0.04335,-0.0166
87.601,0.0432,-0.0168
87.7,0.0432,-0.0172
87.801,0.04305,-0.0176
87.901,0.0429,-0.01795
88,0.04275,-0.03165
88.1,0.04275,-0.0187
88.202,0.0435,-0.00655
88.301,0.0426,-0.0199
88.4,0.0426,-0.01995
88.5,0.0426,-0.02085
88.601,0.04305,-0.00855
88.701,0.0429,-0.009
88.8,0.0423,-0.02255
88.9,0.0423,-0.02325
89,0.042,-0.0237
89.1,0.042,-0.0243
89.2,0.042,-0.0251
89.3,0.04185,-0.02535
89.4,0.0417,-0.02625
89.501,0.04215,-0.01345
89.6,0.04155,-0.0271
89.7,0.04155,-0.0274
89.8,0.04155,-0.02845
89.901,0.0417,-0.0158
90,0.04125,-0.02905
90.1,0.0414,-0.02985
90.201,0.04125,-0.0305
90.3,0.0414,-0.0311
90.401,0.04125,-0.01775
90.5,0.0411,-0.03175
90.6,0.04095,-0.0326
90.7,0.04185,-0.0201
90.8,0.04095,-0.0336
90.9,0.04095,-0.0337
91.001,0.0408,-0.03455
91.1,0.0408,-0.0352
91.201,0.0405,-0.0233
91.3,0.0408,-0.0364
91.4,0.04095,-0.03685
91.501,0.04035,-0.02575
91.6,0.04095,-0.048
91.7,0.0408,-0.0385
91.8,0.04065,-0.03915
91.9,0.0405,-0.0394
92,0.0405,-0.04015
92.101,0.0399,-0.0292
92.2,0.0405,-0.04135
92.3,0.04035,-0.0418
92.401,0.04065,-0.04245
92.5,0.04065,-0.0502
92.6,0.04035,-0.04355
92.7,0.04065,-0.0442
92.8,0.04035,-0.0442
92.9,0.0402,-0.04495
93.001,0.04035,-0.0453
93.1,0.04035,-0.0455
93.2,0.0399,-0.0458
93.3,0.0399,-0.04635
93.4,0.0402,-0.04715
93.5,0.03975,-0.04705
93.601,0.03975,-0.0476
93.7,0.0399,-0.048
93.801,0.03915,-0.03815
93.9,0.03945,-0.04855
94,0.0399,-0.04865
94.101,0.0393,-0.049
94.2,0.0393,-0.0494
94.3,0.0396,-0.04945
94.4,0.039,-0.0495
94.5,0.03915,-0.01655
94.6,0.03915,-0.0498
94.701,0.039,-0.0425
94.8,0.0393,-0.051
94.901,0.0387,-0.0509
95.001,0.03855,-0.0514
95.1,0.03885,-0.0515
95.2,0.03855,-0.0517
95.301,0.0387,-0.04485
95.401,0.03855,-0.0456
95.501,0.0387,-0.05225
95.6,0.0408,-0.05485
95.699,0.04065,-0.0546
95.8,0.0384,-0.0527
95.9,0.03825,-0.0525
96.001,0.03825,-0.047
96.101,0.0381,-0.0529
96.2,0.0384,-0.05295
96.301,0.03825,-0.04795
96.401,0.0384,-0.0534
96.501,0.03825,-0.05355
96.6,0.0381,-0.0537
96.701,0.0384,-0.0539
96.8,0.03825,-0.05375
96.9,0.03825,-0.0543
97.001,0.0375,-0.0499
97.1,0.0384,-0.05455
97.201,0.03735,-0.05015
97.3,0.03825,-0.05495
97.401,0.03855,-0.05445
97.5,0.03825,-0.05485
97.6,0.0387,-0.0512
97.7,0.03825,-0.05535
97.801,0.03705,-0.05135
97.901,0.0384,-0.052
98,0.03855,-0.0552
98.1,0.03855,-0.05545
98.201,0.03705,-0.05235
98.301,0.03645,-0.05255
98.401,0.0387,-0.0553
98.5,0.0429,-0.0533
98.601,0.0387,-0.05575
98.7,0.0387,-0.0556
98.801,0.0366,-0.05345
98.901,0.03885,-0.0562
99,0.04305,-0.0527
99.1,0.039,-0.05625
99.201,0.03885,-0.0562
99.3,0.03915,-0.05585
99.401,0.03615,-0.05475
99.5,0.0393,-0.0561
99.601,0.03945,-0.0561
99.701,0.0396,-0.05645
99.8,0.0396,-0.0559
99.901,0.03645,-0.05545
100,0.0399,-0.05615
100.1,0.0399,-0.0562
100.201,0.03615,-0.056
100.3,0.04005,-0.05585
100.401,0.04035,-0.056
100.5,0.0402,-0.0562
100.601,0.0405,-0.0559
100.7,0.04035,-0.05625
100.801,0.0366,-0.05655
100.9,0.04065,-0.05595
101,0.04065,-0.05585
101.101,0.0366,-0.05715
101.2,0.04065,-0.05565
101.3,0.0408,-0.0557
101.4,0.0408,-0.05625
101.501,0.04065,-0.05595
101.6,0.04095,-0.0559
101.7,0.0408,-0.05605
101.8,0.0408,-0.0554
101.9,0.04095,-0.0557
102.001,0.04065,-0.0559
102.1,0.0408,-0.05795
102.201,0.0408,-0.05595
102.3,0.0408,-0.05575
102.401,0.03675,-0.0585
102.501,0.04095,-0.0559
102.6,0.0408,-0.056
102.7,0.0408,-0.05555
102.801,0.03675,-0.0586
102.9,0.0411,-0.05565
103.001,0.03675,-0.0589
103.101,0.04095,-0.05535
103.201,0.03705,-0.0588
103.3,0.0411,-0.05555
103.4,0.04125,-0.0555
103.5,0.04095,-0.0557
103.601,0.0411,-0.05535
103.701,0.04125,-0.056
103.8,0.04125,-0.05555
103.9,0.04125,-0.0555
104,0.0414,-0.05525
104.1,0.04125,-0.05545
104.201,0.0375,-0.0595
104.3,0.0414,-0.0557
104.4,0.0414,-0.0554
104.5,0.04155,-0.0557
104.601,0.03795,-0.0599
104.701,0.0378,-0.06025
104.8,0.0414,-0.05505
104.9,0.0414,-0.0557
105.001,0.03795,-0.05995
105.1,0.04155,-0.05565
105.2,0.0414,-0.0551
105.3,0.04125,-0.0473
105.4,0.04155,-0.05485
105.501,0.0414,-0.05475
105.6,0.0417,-0.0546
105.7,0.0417,-0.05525
105.8,0.04155,-0.0545
105.899,0.04095,-0.0459
106,0.0408,-0.046
106.1,0.0417,-0.05445
106.2,0.0417,-0.05415
106.301,0.0387,-0.0597
106.401,0.0414,-0.0538
106.5,0.0414,-0.05375
106.601,0.0414,-0.0542
106.7,0.0402,-0.04515
106.8,0.0411,-0.05405
106.9,0.0411,-0.0604
107.001,0.039,-0.05965
107.101,0.0408,-0.05385
107.2,0.0408,-0.05335
107.3,0.04065,-0.053
107.401,0.0393,-0.0603
107.501,0.0393,-0.06005
107.6,0.04035,-0.053
107.701,0.03975,-0.0601
107.801,0.0402,-0.05245
107.9,0.04005,-0.0531
108.001,0.04005,-0.05225
108.1,0.0399,-0.05215
108.2,0.0396,-0.0527
108.3,0.0396,-0.0521
108.4,0.03945,-0.0514
108.5,0.03945,-0.0515
108.601,0.03945,-0.05125
108.7,0.0402,-0.03945
108.8,0.0393,-0.0507
108.9,0.03915,-0.05035
109,0.03915,-0.05025
109.101,0.039,-0.0505
109.201,0.03885,-0.05005
109.3,0.03885,-0.04955
109.4,0.03885,-0.0489
109.501,0.0387,-0.04905
109.6,0.03885,-0.0484
109.699,0.03945,-0.0359
109.8,0.03855,-0.04785
109.9,0.03855,-0.0483
110,0.03855,-0.04775
110.099,0.03855,-0.03465
110.2,0.0384,-0.0478
110.301,0.0387,-0.04695
110.4,0.0381,-0.03385
110.5,0.0381,-0.0328
110.6,0.03855,-0.0465
110.701,0.03885,-0.04605
110.8,0.03885,-0.0455
110.9,0.039,-0.0452
111.001,0.0384,-0.0566
111.101,0.03825,-0.05615
111.2,0.03915,-0.04425
111.3,0.039,-0.04405
111.4,0.0393,-0.04365
111.5,0.0393,-0.06425
111.6,0.03915,-0.04305
111.7,0.0393,-0.04305
111.801,0.03885,-0.04325
111.9,0.03855,-0.04325
112,0.03885,-0.04245
112.1,0.0369,-0.0289
112.2,0.0369,-0.0291
112.3,0.0369,-0.02845
112.4,0.03795,-0.0415
112.5,0.0366,-0.029
112.601,0.0375,-0.04045
112.7,0.03645,-0.0278
112.801,0.0369,-0.04065
112.9,0.03615,-0.02805
113,0.0369,-0.0397
113.1,0.03675,-0.03955
113.201,0.0375,-0.0634
113.3,0.0366,-0.03905
113.401,0.03765,-0.05225
113.5,0.0363,-0.0391
113.6,0.03645,-0.0387
113.7,0.0363,-0.0389
113.801,0.0363,-0.0381
113.9,0.0363,-0.03785
114.001,0.03615,-0.0377
114.1,0.036,-0.0378
114.201,0.0378,-0.0508
114.301,0.0378,-0.0504
114.4,0.0357,-0.0375
114.5,0.0357,-0.03745
114.6,0.0339,-0.02485
114.7,0.03405,-0.0242
114.8,0.03555,-0.03675
114.9,0.0354,-0.0365
115.001,0.0366,-0.04905
115.101,0.03615,-0.04915
115.201,0.03615,-0.04875
115.301,0.03585,-0.04875
115.4,0.03495,-0.0358
115.501,0.0351,-0.0355
115.6,0.0348,-0.0353
115.7,0.033,-0.0236
115.8,0.0348,-0.03575
115.901,0.0345,-0.03525
116,0.03435,-0.0348
116.101,0.0342,-0.03475
116.2,0.0339,-0.0348
116.301,0.03405,-0.03475
116.4,0.0339,-0.03455
116.5,0.0336,-0.0347
116.6,0.03375,-0.0348
116.701,0.0333,-0.0347
116.8,0.03315,-0.0343
116.901,0.03345,-0.03435
117.001,0.03285,-0.0349
117.101,0.03315,-0.0341
117.2,0.03285,-0.0343
117.301,0.0327,-0.03415
117.4,0.03285,-0.0344
117.5,0.0327,-0.0339
117.6,0.033,-0.03395
117.7,0.03255,-0.03395
117.801,0.0339,-0.04625
117.9,0.0324,-0.0337
118,0.0327,-0.03355
118.1,0.0327,-0.03405
118.201,0.03375,-0.04535
118.3,0.0324,-0.03355
118.4,0.03225,-0.03415
118.501,0.03225,-0.03355
118.601,0.0315,-0.0333
118.701,0.0333,-0.046
118.801,0.0315,-0.03325
118.9,,-0.02345
119.001,0.03055,-0.0338
119.1,0.0304,-0.03345
119.2,0.0305,-0.03385
119.301,0.03215,-0.04575
119.4,0.0301,-0.03405
119.5,0.0301,-0.0338
119.6,0.02975,-0.03405
119.701,0.0318,-0.046
119.801,0.0297,-0.03375
119.9,0.02965,-0.0345
120.001,0.03145,-0.04595
120.101,0.0312,-0.04575
120.2,0.0294,-0.035
120.301,0.03145,-0.0458
120.4,0.0293,-0.03455
120.502,0.0314,-0.04605
120.6,0.0293,-0.03465
120.701,0.031,-0.04625
120.8,0.02895,-0.03515
120.9,0.02905,-0.0354
121.001,0.0289,-0.0352
121.101,0.0288,-0.0355
121.2,0.0289,-0.03615
121.3,0.0287,-0.03585
121.401,0.03055,-0.0471
121.5,0.02855,-0.03625
121.601,0.0302,-0.04735
121.7,0.02845,-0.0365
121.801,0.0304,-0.04765
121.9,0.0284,-0.0375
122.001,0.02985,-0.0488
122.101,0.0298,-0.06055
122.201,0.02935,-0.04895
122.3,0.0281,-0.0375
122.401,0.02905,-0.0494
122.5,0.028,-0.03885
122.599,0.0275,-0.03015
122.701,0.0285,-0.0504
122.799,0.0274,-0.03045
122.9,0.02785,-0.03945
123,0.0277,-0.03985
123.1,0.02765,-0.04035
123.201,0.02765,-0.0403
123.3,0.02715,-0.03255
123.401,0.0275,-0.04125
123.499,0.02705,-0.0333
123.6,0.027,-0.03365
123.7,0.02735,-0.0423
123.801,0.02785,-0.0531
123.9,0.0272,-0.0438
124,0.02715,-0.0434
124.1,0.02715,-0.0442
124.2,0.02715,-0.04435
124.3,0.027,-0.0451
124.401,0.027,-0.04495
124.5,0.02695,-0.0459
124.601,0.0269,-0.0455
124.7,0.02645,-0.03885
124.8,0.02675,-0.04685
124.9,0.0267,-0.0465
125,0.02665,-0.04745
125.101,0.0266,-0.0473
125.2,0.0262,-0.0413
125.3,0.0265,-0.0483
125.4,0.0264,-0.04825
125.5,0.0264,-0.04885
125.601,0.02675,-0.05825
125.7,0.02625,-0.04975
125.801,0.02665,-0.05925
125.901,0.02655,-0.06
126,0.0261,-0.0509
126.1,0.0257,-0.0465
126.2,0.02565,-0.0471
126.301,0.02595,-0.05185
126.4,0.02585,-0.0525
126.501,0.0258,-0.05315
126.6,0.02575,-0.05325
126.701,0.02615,-0.06185
126.8,0.0257,-0.0542
126.9,0.02565,-0.05485
127,0.0256,-0.06315
127.1,0.02555,-0.056
127.201,0.0255,-0.05625
127.3,0.0251,-0.0543
127.4,0.02545,-0.0575
127.5,0.0254,-0.058
127.6,0.0253,-0.0587
127.701,0.02565,-0.0669
127.8,0.02525,-0.05985
127.9,0.0252,-0.0607
128,0.02515,-0.061
128.101,0.0254,-0.06925
128.201,0.02505,-0.06245
128.3,0.025,-0.06305
128.4,0.02495,-0.0638
128.5,0.0249,-0.06445
128.6,0.02485,-0.0651
128.701,0.0248,-0.0659
128.8,0.02475,-0.0665
128.901,0.0247,-0.06715
129,0.02455,-0.0676
129.1,0.0241,-0.0679
129.201,0.0245,-0.06905
129.3,0.02445,-0.0698
129.4,0.0239,-0.07105
129.501,0.02435,-0.07155
129.6,0.0243,-0.07295
129.701,0.0246,-0.0779
129.8,0.02415,-0.0748
129.9,0.02415,-0.07575
130,0.02365,-0.0781
130.1,0.02365,-0.0791
130.2,0.024,-0.07845
130.301,0.02395,-0.0793
130.4,0.02385,-0.0801
130.501,0.02385,-0.0808
130.6,0.0234,-0.0837
130.7,0.0238,-0.0825
130.8,0.02375,-0.08345
130.9,0.02365,-0.0844
131.001,0.024,-0.08705
131.101,0.0239,-0.0878
131.2,0.02355,-0.087
131.3,0.02295,-0.09075
131.4,0.0234,-0.08895
131.501,0.02375,-0.09085
131.6,0.0233,-0.0909
131.701,0.02365,-0.0924
131.801,0.02315,-0.09285
131.901,0.0231,-0.09385
132.001,0.023,-0.09455
132.1,0.02245,-0.09945
132.2,0.0224,
132.299,0.02205,-0.1068
132.4,0.02275,-0.0984
132.501,0.0227,-0.09945
132.6,0.02265,-0.10065
132.701,0.0226,-0.10155
132.8,0.0226,-0.10275
132.901,0.0225,-0.10365
133,0.022,-0.10905
133.1,0.0225,-0.10575
133.201,0.02245,-0.10665
133.301,0.0224,-0.10755
133.4,0.02235,-0.1086
133.5,0.0223,-0.11115
133.6,0.02165,-0.1155
133.7,0.02155,-0.11655
133.8,0.02215,-0.11295
133.9,0.0221,-0.11235
134,0.02205,-0.1152
134.1,0.022,-0.11625
134.201,0.02195,-0.11715
134.3,0.02195,-0.11835
134.4,0.02185,-0.11925
134.5,0.0218,-0.1206
134.6,0.0218,-0.1218
134.701,0.0222,-0.1203
134.801,0.02215,-0.1215
134.901,0.02215,-0.12255
135.001,0.02155,-0.12615
135.1,0.02145,-0.12735
135.2,0.0214,-0.12855
135.3,0.02135,-0.1296
135.4,0.02135,-0.1308
135.5,0.0213,-0.13215
135.6,0.0212,-0.13305
135.7,0.02115,-0.13455
135.8,0.0211,-0.1356
135.901,0.02105,-0.13665
136,0.02065,-0.1446
136.1,0.02095,-0.1392
136.201,0.0214,-0.13695
136.3,0.02085,-0.14175
136.4,0.0208,-0.14295
136.501,0.02115,-0.14055
136.6,0.02065,-0.14565
136.7,0.0206,-0.14685
136.801,0.02105,-0.14385
136.9,0.02055,-0.14955
137,0.0205,-0.15075
137.101,0.02095,-0.14775
137.201,0.0204,-0.15345
137.301,0.02035,-0.1548
137.4,0.02025,-0.15585
137.5,0.0202,-0.1575
137.599,0.0199,-0.1668
137.7,0.02015,-0.1599
137.8,0.0201,-0.1614
137.9,0.02005,-0.16275
138.001,0.02,-0.16365
138.1,0.01965,-0.174
138.2,0.01985,-0.1665
138.3,0.01985,-0.16785
138.4,0.02045,-0.1638
138.5,0.01975,-0.17055
138.601,0.0197,-0.17175
138.7,0.0197,-0.17295
138.8,0.01965,-0.1743
138.901,0.02025,-0.1704
139.001,0.01955,-0.177
139.1,0.01955,-0.1785
139.201,0.0195,-0.17985
139.301,0.02005,-0.17565
139.4,0.01945,-0.1827
139.5,0.01935,-0.18375
139.601,0.01985,-0.1794
139.7,0.01935,-0.18645
139.801,0.01925,-0.1878
139.9,0.01925,-0.1896
140,0.0197,-0.18495
140.1,0.01915,-0.192
140.2,0.01915,-0.19335
140.3,0.0191,-0.195
140.401,0.01945,-0.19005
140.501,0.01905,-0.19755
140.601,0.019,-0.19935
140.7,0.01895,-0.2004
140.8,0.0189,-0.20205
140.9,0.0189,-0.2037
141.001,0.01925,-0.19875
141.101,0.01925,-0.20025
141.2,0.01875,-0.20775
141.301,0.0187,-0.20895
141.4,0.0187,-0.2109
141.5,0.01865,-0.2124
141.601,0.01865,-0.21345
141.7,0.0183,-0.22575
141.8,0.01855,-0.2169
141.9,0.0185,-0.2181
142.001,0.01885,-0.21255
142.1,0.0185,-0.22125
142.2,0.01805,-0.23355
142.3,0.01835,-0.2241
142.401,0.01875,-0.21885
142.501,0.0187,-0.2202
142.6,0.0179,-0.23985
142.7,0.0182,-0.2301
142.8,0.01815,-0.2313
142.9,0.01815,-0.2331
143,0.0181,-0.23505
143.101,0.0184,-0.22935
143.2,0.018,-0.2379
143.301,0.01835,-0.23205
143.4,0.018,-0.2406
143.5,0.01795,-0.2424
143.601,0.01825,-0.23655
143.701,0.01825,-0.2379
143.802,0.01865,-0.2358
143.901,0.01785,-0.24855
144,0.0177,-0.25005
144.1,0.0173,-0.26325
144.2,0.0177,-0.2532
144.3,0.0177,-0.25485
144.401,0.0179,-0.24885
144.501,0.0176,-0.25815
144.6,0.0176,-0.25995
144.7,0.0175,-0.26115
144.801,0.01785,-0.25515
144.9,0.01745,-0.2646
145.001,0.0178,-0.2586
145.1,0.0174,-0.2676
145.2,0.01685,-0.28065
145.3,0.0169,-0.2826
145.4,0.0168,-0.2841
145.5,0.01725,-0.2739
145.6,0.01805,-0.26385
145.7,0.01715,-0.27765
145.8,0.0171,-0.2787
145.901,0.01745,-0.273
146,0.0171,-0.28245
146.1,0.0171,-0.2841
146.201,0.01735,-0.2778
146.301,0.0173,-0.27945
146.4,0.01695,-0.28875
146.501,0.0173,-0.2829
146.601,0.01725,-0.2847
146.701,0.0172,-0.28635
146.8,0.01685,-0.2955
146.901,0.0171,-0.2895
147,0.0167,-0.29895
147.1,0.01675,
147.199,0.01625,-0.312
147.301,0.017,-0.296
147.4,0.01665,-0.3055
147.501,0.01695,-0.299
147.601,0.0169,-0.301
147.7,0.0166,-0.3105
147.799,0.016,-0.324
147.9,0.016,-0.3255
148,0.01645,-0.3155
148.101,0.0167,-0.31
148.2,0.0163,-0.3195
148.301,0.01635,-0.321
148.4,0.0163,-0.323
148.5,0.01575,-0.336
148.6,0.0158,-0.338
148.7,0.0162,-0.328
148.8,0.0162,-0.33
148.9,0.0157,-0.3435
149.001,0.0164,-0.326
149.1,0.0161,-0.3355
149.2,0.01605,-0.3375
149.301,0.01605,-0.339
149.4,0.01595,-0.341
149.501,0.01625,-0.335
149.601,0.0162,-0.337
149.701,0.01585,-0.347
149.8,0.0153,-0.36
149.9,0.0153,-0.3625
150,0.01575,-0.3525
150.1,0.0158,-0.354
150.201,0.0157,-0.3565
150.3,0.0157,-0.3585
150.4,0.01565,-0.3595
150.5,0.0156,-0.3625
150.601,0.0159,-0.3565
150.7,0.01555,-0.366
150.801,0.0158,-0.36
150.9,0.0155,-0.37
151,0.01545,-0.372
151.101,0.01575,-0.3655
151.2,0.0154,-0.376
151.3,0.0154,-0.3775
151.4,0.01535,-0.3795
151.5,0.0153,-0.3815
151.601,0.01555,-0.376
151.701,0.0152,-0.3855
151.8,0.0152,-0.3875
151.9,0.0152,-0.39
152,0.01515,-0.392
152.101,0.01545,-0.386
152.2,0.0151,-0.396
152.301,0.01535,-0.39
152.401,0.01505,-0.3995
152.5,0.015,-0.402
152.6,0.015,-0.404
152.7,0.01425,-0.4185
152.8,0.0149,-0.4085
152.9,0.01485,-0.41
153,0.0148,-0.412
153.101,0.01505,-0.406
153.201,0.0148,-0.4165
153.301,0.01505,-0.4105
153.401,0.01475,-0.4205
153.5,0.0147,-0.423
153.6,0.01465,-0.425
153.701,0.0149,-0.4185
153.8,0.0146,-0.429
153.901,0.01485,-0.4235
154.001,0.01455,-0.434
154.101,0.01445,-0.436
154.2,0.01445,-0.438
154.301,0.01445,-0.44
154.401,0.01435,-0.4425
154.5,0.0144,-0.445
154.6,0.01435,-0.4475
154.7,0.01435,-0.4495
154.801,0.01435,-0.4515
154.9,0.0135,-0.466
155,0.01425,-0.456
155.1,0.0142,-0.458
155.2,0.01415,-0.46
155.3,0.01415,-0.4625
155.401,0.0141,-0.465
155.5,0.01415,-0.467
155.601,0.01405,-0.4695
155.7,0.01405,-0.4715
155.8,0.01405,-0.474
155.9,0.01395,-0.476
156.001,0.01395,-0.478
156.1,0.0139,-0.481
156.2,0.01385,-0.483
156.3,0.01385,-0.485
156.401,0.01385,-0.4875
156.5,0.0138,-0.49
156.6,0.01375,-0.4925
156.7,0.01375,-0.4945
156.801,0.01405,-0.489
156.901,0.0137,-0.4995
157,0.0137,-0.5015
157.1,0.01365,-0.504
157.201,0.014,-0.498
157.301,0.0136,-0.5085
157.4,0.0129,-0.523
157.5,0.01365,-0.5135
157.601,0.01355,-0.5155
157.701,0.01355,-0.518
157.8,0.01355,-0.52
157.901,0.01375,-0.515
158,0.01345,-0.525
158.101,0.01375,-0.5195
158.201,0.01375,-0.522
158.3,0.0134,-0.5315
158.401,0.01375,-0.5265
158.501,0.01335,-0.5365
158.6,0.0133,-0.539
158.7,0.0133,-0.541
158.8,0.0133,-0.5435
158.901,0.0136,-0.5385
159.001,0.0136,-0.541
159.1,0.0133,-0.5505
159.201,0.01325,-0.5525
159.301,0.01325,-0.555
159.4,0.0132,-0.557
159.5,0.0132,-0.5595
159.601,0.0135,-0.5555
159.7,0.01315,-0.5645
159.801,0.0135,-0.5605
159.901,0.01305,-0.5695
160,0.01265,-0.5815
160.1,0.0127,-0.5845
160.2,0.013,-0.5765
160.3,0.01295,-0.579
160.4,0.01295,-0.581
160.501,0.0129,-0.584
160.6,0.0125,-0.596
160.701,0.0129,-0.589
160.8,0.0129,-0.5915
160.901,0.01285,-0.594
161,0.0128,-0.5965
161.1,0.01275,-0.599
161.2,0.01275,-0.6015
161.301,0.0134,-0.599
161.4,0.01275,-0.6065
161.5,0.01275,-0.6095
161.6,0.0127,-0.612
161.701,0.01335,-0.6095
161.801,0.0127,-0.617
161.9,0.01275,-0.62
162,0.0127,-0.6225
162.101,0.01265,-0.6245
162.2,0.0127,-0.6275
162.3,0.0127,-0.63
162.401,0.01315,-0.628
162.501,0.0132,-0.631
162.601,0.0127,-0.6375
162.7,0.01265,-0.6405
162.801,0.01265,-0.643
162.9,0.01265,-0.6455
163,0.01265,-0.6485
163.1,0.0136,-0.6485
163.201,0.01325,-0.6505
163.301,0.01265,-0.657
163.4,0.0122,-0.6655
163.5,0.0126,-0.6625
163.601,0.01315,-0.6625
163.703,0.01355,-0.667
163.8,0.01265,-0.6715
163.901,0.0127,-0.674
164,0.01205,-0.682
164.1,0.012,-0.6855
164.2,0.0127,-0.6825
164.301,0.01315,-0.6835
164.401,0.0126,-0.6885
164.5,0.01195,-0.6965
164.6,0.01195,-0.699
164.701,0.01265,-0.6975
164.8,0.0126,-0.7005
164.9,0.0126,-0.7035
165,0.0125,-0.7065
165.1,0.0125,-0.709
165.2,0.0125,-0.7125
165.301,0.01295,-0.715
165.401,0.01245,-0.7185
165.5,0.012,-0.7255
165.6,0.0125,-0.7245
165.701,0.0125,-0.728
165.8,0.0125,-0.731
165.9,0.0125,-0.7345
166,0.01255,-0.7375
166.1,0.01255,-0.7405
166.201,0.01285,-0.745
166.3,0.01255,-0.747
166.401,0.01285,-0.7515
166.5,0.01255,-0.7535
166.6,0.0125,-0.757
166.7,0.0125,-0.7605
166.801,0.01275,-0.7655
166.9,0.01245,-0.767
167,0.0124,-0.77
167.101,0.0124,-0.7735
167.201,0.0124,-0.777
167.301,0.0123,-0.7805
167.4,0.01235,-0.7835
167.5,0.0123,-0.7875
167.601,0.01255,-0.794
167.701,0.01225,-0.794
167.801,0.01225,-0.798
167.9,0.01225,-0.801
168,0.0122,-0.805
168.101,0.0122,-0.8085
168.2,0.01175,-0.8125
168.3,0.01175,-0.816
168.4,0.0122,-0.819
168.501,0.01255,-0.8285
168.6,0.0122,-0.832
168.701,0.01255,-0.8365
168.801,0.0122,-0.8345
168.901,0.0121,-0.838
169.001,0.01215,-0.8415
169.1,0.0118,-0.8445
169.2,0.01175,-0.848
169.3,0.0118,-0.8515
169.4,0.01175,-0.855
169.5,0.01205,-0.8605
169.6,0.01205,-0.864
169.7,0.012,-0.8675
169.801,0.012,-0.871
169.9,0.012,-0.875
170,0.01195,-0.8785
170.101,0.01195,-0.8825
170.2,0.0116,-0.8845
170.3,0.01195,-0.89
170.399,0.0116,-0.8915
170.501,0.0119,-0.898
170.6,0.01185,-0.9015
170.701,0.01235,-0.9135
170.799,0.0115,-0.908
170.9,0.0118,-0.914
171,0.01175,-0.9185
171.101,0.0122,-0.93
171.201,0.0122,-0.9345
171.3,0.01175,-0.93
171.4,0.0117,-0.934
171.5,0.0113,-0.9345
171.601,0.01165,-0.942
171.7,0.01165,-0.946
171.801,0.01205,-0.9575
171.9,0.0116,-0.954
172,0.0116,-0.958
172.101,0.01155,-0.9615
172.2,0.01155,-0.9655
172.3,0.01155,-0.9695
172.4,0.01155,-0.9735
172.501,0.01205,-0.9855
172.6,0.01145,-0.9815
172.7,0.0115,-0.986
172.8,0.0115,-0.99
172.9,0.0111,-0.99
173,0.01145,-0.998
173.101,0.01205,
173.2,0.0114,-1.005
173.3,0.0114,-1.008
173.4,0.01135,-1.011
173.5,0.011,-1.011
173.6,0.0113,-1.02
173.7,0.01125,-1.0245
173.801,0.01185,-1.0365
173.9,0.01125,-1.041
174,0.0109,-1.032
174.1,0.0112,-1.041
174.201,0.01165,-1.053
174.3,0.0112,-1.05
174.4,0.0112,-1.053
174.501,0.0116,-1.0665
174.601,0.0111,-1.062
174.7,0.0111,-1.0665
174.8,0.0111,-1.0695
174.9,0.0107,-1.0695
175,0.01105,-1.0785
175.101,0.0115,-1.092
175.2,0.011,-1.0875
175.301,0.01145,-1.101
175.4,0.01095,-1.0965
175.5,0.01095,-1.101
175.601,0.01095,-1.1055
175.7,0.0109,-1.1175
175.801,0.01085,-1.1145
175.9,0.01085,-1.1175
176.001,0.0115,-1.1295
176.101,0.0108,-1.1265
176.2,0.0108,-1.1295
176.301,0.0112,-1.1445
176.4,0.01035,-1.134
176.5,0.01035,-1.1385
176.6,0.01035,-1.143
176.7,0.01065,-1.1535
176.8,0.01065,-1.158
176.901,0.0111,-1.17
177.001,0.0106,-1.167
177.1,0.0102,-1.1655
177.2,0.01055,-1.176
177.3,0.01055,-1.1805
177.401,0.01095,-1.194
177.501,0.0109,-1.1985
177.6,0.0104,-1.194
177.699,0.01005,-1.194
177.799,0.01005,-1.1985
177.9,0.01,-1.203
178,0.0103,-1.212
178.1,0.0103,-1.2165
178.2,0.01025,-1.2225
178.301,0.0102,-1.227
178.4,0.0102,-1.2315
178.501,0.0107,-1.2435
178.601,0.01065,-1.248
178.7,0.0101,-1.245
178.801,0.01005,-1.2495
178.899,0.0097,-1.251
179,0.01005,-1.2585
179.1,0.01,-1.263
179.2,0.01,-1.2675
179.3,0.00995,-1.272
179.401,0.01055,-1.2855
179.501,0.0099,-1.281
179.601,0.0099,-1.287
179.701,0.00985,-1.2915
179.8,0.00985,-1.296
179.9,0.00985,-1.302
180,0.0098,-1.3065
180.101,0.0102,-1.3185
180.201,0.0102,-1.323
180.299,0.00935,-1.32
180.401,0.00965,-1.326
180.5,0.00965,-1.3305
180.6,0.00965,-1.335
180.7,0.0096,-1.3395
180.801,0.0096,-1.3455
180.9,0.00955,-1.35
181,0.00955,-1.3545
181.101,0.00985,-1.3665
181.2,0.00945,-1.3575
181.3,0.00945,-1.365
181.401,0.00975,-1.377
181.5,0.0094,-1.3755
181.601,0.00935,-1.38
181.701,0.0093,-1.3845
181.8,0.0089,-1.389
181.9,0.00925,-1.392
182,0.0092,-1.3875
182.101,0.0092,-1.3935
182.2,0.0087,-1.398
182.301,0.0091,-1.4025
182.4,0.0091,-1.4085
182.501,0.00905,-1.413
182.6,0.0086,-1.419
182.7,0.009,-1.4235
182.8,0.00895,-1.4295
182.9,0.0089,-1.434
183.001,0.0093,-1.443
183.1,0.00885,-1.4445
183.201,0.0092,-1.4535
183.301,0.00915,-1.4595
183.4,0.00875,-1.461
183.499,0.00825,-1.467
183.6,0.0087,-1.4715
183.7,0.0087,-1.4775
183.801,0.00905,-1.4865
183.9,0.0086,-1.488
184.001,0.009,-1.497
184.1,0.00855,-1.5
184.201,0.0089,-1.5075
184.301,0.00855,-1.5105
184.4,0.0085,-1.5165
184.5,0.00805,-1.524
184.6,0.008,-1.5285
184.701,0.00845,-1.533
184.8,0.0084,-1.539
184.901,0.0087,-1.5465
185.001,0.00875,-1.5525
185.1,0.00835,-1.5555
185.201,0.0083,-1.5615
185.3,0.00775,-1.569
185.4,0.0083,-1.5735
185.501,0.00825,-1.578
185.601,0.00815,-1.584
185.7,0.00815,-1.59
185.8,0.00815,-1.596
185.9,0.00815,-1.602
186,0.00745,-1.611
186.1,0.008,-1.614
186.201,0.0084,-1.62
186.301,0.00835,-1.626
186.4,0.0079,-1.632
186.5,0.00785,-1.638
186.599,0.0073,-1.647
186.703,0.00935,-1.6635
186.8,0.0078,-1.656
186.901,0.00815,-1.662
187,0.00765,-1.668
187.1,0.00765,-1.674
187.2,0.00765,-1.68
187.301,0.0076,-1.686
187.399,0.00705,-1.6965
187.499,0.007,-1.7025
187.6,0.00755,-1.7055
187.7,0.0075,-1.7115
187.801,0.0079,-1.7175
187.901,0.0079,-1.7235
188,0.0068,-1.734
188.1,0.00735,-1.737
188.2,0.00735,-1.743
188.301,0.00735,-1.749
188.4,0.00725,-1.7565
188.5,0.0073,-1.7625
188.6,0.00725,-1.7685
188.7,0.0072,-1.776
188.8,0.00725,-1.782
188.901,0.00725,-1.7895
189,0.0066,-1.8
189.1,0.0065,-1.809
189.201,0.0076,-1.8105
189.3,0.00645,-1.8225
189.4,0.0071,-1.8225
189.5,0.00705,-1.8285
189.601,0.0075,-1.8345
189.7,0.00705,-1.8435
189.801,0.00745,-1.848
189.9,0.00695,-1.857
190,0.00695,-1.863
190.101,0.0074,-1.869
190.2,0.0069,-1.878
190.3,0.00685,-1.884
190.4,0.00685,-1.8915
190.5,0.00685,-1.8975
190.601,0.00725,-1.9035
190.7,0.00675,-1.9125
190.8,0.00675,-1.92
190.901,0.0072,-1.9245
191.001,0.0072,-1.932
191.1,0.0067,-1.941
191.2,0.00665,-1.9485
191.301,0.0066,-1.956
191.4,0.0059,-1.968
191.5,0.0066,-1.9695
191.6,0.0065,-1.977
191.7,0.00645,-1.9845
191.8,0.00645,-1.992
191.9,0.0058,-2.0055
192.001,0.0064,-2.007
192.1,0.0063,-2.0145
192.201,0.00695,-2.019
192.3,0.0062,-2.0295
192.4,0.0062,-2.037
192.5,0.0062,-2.0445
192.6,0.00615,-2.052
192.7,0.00615,-2.0595
192.801,0.0067,-2.0655
192.901,0.0061,-2.076
193,0.00605,-2.0835
193.101,0.0066,-2.0895
193.201,0.00595,-2.1
193.3,0.00595,-2.1075
193.4,0.006,-2.115
193.501,0.0065,-2.1195
193.601,0.0059,-2.13
193.701,0.00585,-2.139
193.8,0.00535,-2.1525
193.9,0.00585,-2.1555
194.001,0.0058,-2.163
194.1,0.0058,-2.172
194.201,0.00575,-2.1795
194.3,0.00535,-2.1945
194.4,0.0057,-2.196
194.501,0.00625,-2.2005
194.599,0.00525,-2.2185
194.7,0.0057,-2.2215
194.799,0.0052,-2.2365
194.9,0.0056,-2.2395
195.001,0.00615,-2.2455
195.1,0.0056,-2.2545
195.2,0.00555,-2.268
195.301,0.0055,-2.277
195.4,0.005,-2.2935
195.5,0.00545,-2.2965
195.601,0.00595,-2.3025
195.7,0.00545,-2.3145
195.8,0.0054,-2.325
195.899,0.00495,-2.3415
196.001,0.0059,-2.34
196.101,0.00585,-2.349
196.201,0.0053,-2.3625
196.3,0.0053,-2.3745
196.401,0.00575,-2.3835
196.501,0.0057,-2.394
196.601,0.00575,-2.403
196.7,0.0052,-2.415
196.8,0.0052,-2.4255
196.9,0.0052,-2.4345
197,0.00515,-2.4435
197.101,0.0056,-2.4495
197.2,0.00505,-2.4645
197.301,0.00505,-2.4735
197.4,0.0051,-2.484
197.501,0.00505,-2.4945
197.601,0.00495,-2.505
197.7,0.00495,-2.5155
197.8,0.005,-2.5245
197.9,0.0045,-2.541
198,0.0049,-2.544
198.101,0.00495,-2.553
198.2,0.00495,-2.5635
198.301,0.00545,-2.5695
198.4,0.00485,-2.583
198.5,0.00485,-2.5935
198.6,0.00485,-2.6025
198.701,0.00535,-2.61
198.8,0.0048,-2.6235
198.9,0.0048,-2.634
199.001,0.0053,-2.64
199.101,0.00525,-2.6505
199.201,0.0047,-2.664
199.3,0.00475,-2.6745
199.4,0.0043,-2.691
199.5,0.00465,-2.694
199.601,0.00465,-2.7045
199.7,0.0046,-2.715
199.8,0.00425,-2.7315
199.9,0.00465,-2.7345
200.001,0.00515,-2.742
200.1,0.0046,-2.7555
200.2,0.0046,-2.766
200.3,0.00455,-2.7765
200.401,0.00455,-2.787
200.5,0.00415,-2.805
200.601,0.00455,-2.8095
200.7,0.00405,-2.8275
200.8,0.0045,-2.832
200.9,0.00445,-2.8425
201,0.0045,-2.8545
201.101,0.00495,-2.8635
201.2,0.00435,-2.8755
201.3,0.0044,-2.886
201.401,0.0044,-2.898
201.501,0.0044,-2.9085
201.6,0.00435,-2.919
201.701,0.00485,-2.9265
201.801,0.00425,-2.9415
201.901,0.0043,-2.9535
202,0.0039,-2.9715
202.1,0.00385,-2.9835
202.201,0.0043,-2.988
202.3,0.00425,-3
202.4,0.00425,
202.499,0.0038,-3.03
202.6,0.00425,-3.035
202.701,0.0042,-3.045
202.8,0.0042,-3.055
202.901,0.00465,-3.065
203,0.00415,-3.08
203.1,0.00415,-3.095
203.199,0.00365,-3.115
203.3,0.00405,-3.12
203.4,0.00405,-3.13
203.501,0.00455,-3.14
203.6,0.004,-3.155
203.7,0.00405,-3.17
203.801,0.0045,-3.175
203.901,0.004,-3.195
203.999,0.0036,-3.215
204.101,0.00445,-3.215
204.2,0.004,-3.235
204.3,0.00395,-3.245
204.401,0.0039,-3.26
204.5,0.0039,-3.275
204.6,0.0039,-3.29
204.7,0.00385,-3.3
204.801,0.00445,-3.31
204.901,0.00385,-3.33
205,0.0034,-3.35
205.1,0.0039,-3.36
205.2,0.0033,-3.38
205.3,0.0038,-3.385
205.4,0.00385,-3.4
205.501,0.0044,-3.41
205.6,0.00375,-3.43
205.701,0.00435,-3.44
205.801,0.0044,-3.45
205.9,0.00375,-3.47
206.001,0.0044,-3.48
206.1,0.00375,-3.5
206.201,0.00435,-3.51
206.301,0.00435,-3.525
206.401,0.00365,-3.545
206.5,0.0037,-3.56
206.6,0.0037,-3.575
206.701,0.00365,-3.59
206.801,0.00365,-3.605
206.9,0.00365,-3.62
207,0.00305,-3.64
207.101,0.0036,-3.65
207.2,0.003,-3.675
207.299,0.003,-3.69
207.401,0.00355,-3.705
207.499,0.00305,-3.725
207.6,0.0036,-3.73
207.7,0.003,-3.755
207.8,0.00295,-3.77
207.9,0.0036,-3.78
208,0.0036,-3.8
208.1,0.00355,-3.815
208.201,0.0042,-3.83
208.301,0.0042,-3.845
208.401,0.00415,-3.865
208.5,0.0036,-3.885
208.6,0.0036,-3.9
208.701,0.00415,-3.915
208.801,0.0035,-3.93
208.9,0.0035,-3.95
209.001,0.0041,-3.97
209.101,0.00355,-3.985
209.201,0.0035,-4.005
209.3,0.00345,-4.02
209.401,0.00405,-4.04
209.501,0.004,-4.055
209.601,0.00345,-4.08
209.701,0.00345,-4.095
209.8,0.00345,-4.115
209.901,0.0039,-4.135
210,0.0034,-4.155
210.1,0.00335,-4.175
210.2,0.0034,-4.2
210.301,0.0034,-4.22
210.4,0.00335,-4.24
210.5,0.0034,-4.26
210.6,0.00255,-4.285
210.7,0.00255,-4.305
210.8,0.0026,-4.325
210.9,0.0033,-4.345
211,0.00385,-4.365
211.1,0.00325,-4.39
211.2,0.00325,-4.41
211.301,0.0032,-4.43
211.4,0.0032,-4.455
211.5,0.0032,-4.475
211.601,0.0039,-4.495
211.701,0.00315,-4.515
211.8,0.00315,-4.54
211.901,0.00315,-4.56
212,0.00315,-4.585
212.101,0.0038,-4.605
212.201,0.0038,-4.63
212.3,0.0032,-4.65
212.401,0.00385,-4.675
212.501,0.0032,-4.695
212.6,0.0033,-4.72
212.701,0.0038,-4.745
212.801,0.00395,-4.77
212.9,0.00335,-4.79
213.001,0.0037,-4.815
213.1,0.0033,-4.84
213.2,0.00245,-4.865
213.3,0.00245,-4.89
213.4,0.00335,-4.91
213.5,0.00335,-4.94
213.6,0.0033,-4.96
213.7,0.00335,-4.985
213.8,0.00345,-5.01
213.901,0.00335,-5.04
214,0.00325,-5.07
214.101,0.00325,-5.095
214.2,0.0033,-5.125
214.301,0.0034,-5.155
214.4,0.0026,-5.185
214.5,0.00315,-5.215
214.6,0.0032,-5.25
214.7,0.00335,-5.275
214.8,0.00345,-5.305
214.901,0.0038,-5.34
215,0.00315,-5.365
215.101,0.00425,-5.395
215.201,0.0034,-5.425
215.301,0.0031,-5.46
215.4,0.0032,-5.49
215.501,0.0043,-5.535
215.6,0.0035,-5.56
215.701,0.00395,-5.6
215.8,0.00325,-5.63
215.9,0.0032,-5.67
216.001,0.00465,-5.71
216.101,0.00355,-5.74
216.2,0.0037,-5.775
216.301,0.0039,-5.82
216.4,0.0034,-5.85
216.501,0.00325,-5.89
216.601,0.00325,-5.925
216.7,0.0026,-5.96
216.8,0.00375,-6
216.901,0.0042,-6.05
217,0.0036,-6.08
217.1,0.0033,-6.12
217.2,0.0033,-6.16
217.301,0.00495,-6.21
217.4,0.00355,-6.245
217.5,0.0037,-6.29
217.6,0.00285,-6.33
217.7,0.0028,-6.375
217.8,0.0031,-6.42
217.9,0.00355,-6.465
218,0.00335,-6.505
218.1,0.00325,-6.545
218.2,0.0034,-6.59
218.301,0.0052,-6.645
218.401,0.00495,-6.695
218.501,0.00405,-6.735
218.6,0.00385,-6.79
218.7,0.0034,-6.835
218.801,0.00505,-6.895
218.901,0.00385,-6.935
219,0.00435,-6.98
219.1,0.0039,-7.025
219.2,0.0035,-7.075
219.3,0.00275,-7.12
219.4,0.0043,-7.175
219.5,0.0032,-7.22
219.601,0.00365,-7.275
219.7,0.0028,-7.325
219.8,0.0046,-7.38
219.9,0.0044,-7.43
220.001,0.0038,-7.48
220.1,0.0037,-7.53
220.2,0.0043,-7.58
220.301,0.00585,-7.635
220.401,0.0057,-7.69
220.501,0.0056,-7.735
220.6,0.00385,-7.775
220.7,0.0042,-7.83
220.8,0.0049,-7.885
220.9,0.00485,-7.935
221,0.0042,-7.99
221.1,0.00455,-8.04
221.201,0.00745,-8.095
221.3,0.0041,-8.135
221.4,0.00485,-8.19
221.5,0.00345,-8.235
221.6,0.0057,-8.285
221.7,0.0059,-8.33
221.801,0.0063,-8.38
221.9,0.00445,-8.42
222,0.00695,-8.475
222.1,0.00695,-8.52
222.201,0.0065,-8.56
222.301,0.00525,-8.6
222.4,0.0042,-8.64
222.501,0.00395,-8.67
222.601,0.00355,-8.685
222.7,0.00345,-8.705
222.8,0.00305,-8.725
222.9,0.00305,-8.735
223.001,0.0033,-8.74
223.1,0.00325,-8.75
223.2,0.0032,-8.76
223.301,0.0035,-8.77
223.4,0.0032,-8.775
223.5,0.0032,-8.78
223.6,0.0032,-8.78
223.7,0.0029,-8.785
223.801,0.0032,-8.79
223.9,0.00315,-8.795
224.001,0.00315,-8.8
224.1,0.0029,-8.805
224.2,0.0031,-8.805
224.301,0.0034,-8.805
224.401,0.0031,-8.81
224.5,0.00315,-8.815
224.601,0.00315,-8.82
224.7,0.00315,-8.825
224.8,0.00315,-8.825
224.9,0.00315,-8.825
225.001,0.0034,-8.825
225.1,0.00315,-8.83
225.201,0.0034,-8.83
225.301,0.0034,-8.835
225.4,0.0031,-8.835
225.501,0.0034,-8.835
225.6,0.00315,-8.835
225.7,0.00315,-8.835
225.8,0.00275,-8.84
225.9,0.0031,-8.84
226.001,0.0031,-8.84
226.1,0.00275,-8.84
226.201,0.0031,-8.84
226.3,0.0028,-8.84
226.4,0.00305,-8.84
226.499,0.0028,-8.845
226.601,0.0034,-8.845
226.7,0.00305,-8.84
226.8,0.00305,-8.84
226.901,0.0031,-8.84
227,0.00305,-8.84
227.101,0.00305,-8.845
227.2,0.00305,-8.845
227.3,0.0028,-8.845
227.4,0.00305,-8.845
227.5,0.00305,-8.84
227.6,0.00305,-8.84
227.7,0.00305,-8.84
227.801,0.00305,-8.84
227.9,0.003,-8.835
228,0.0031,-8.835
228.1,0.00305,-8.835
228.201,0.0032,-8.835
228.3,0.0031,-8.84
228.4,0.0031,-8.84
228.499,0.0028,-8.84
228.6,0.00285,-8.845
228.701,0.0031,-8.845
228.8,0.0028,-8.84
228.9,0.0031,-8.845
229,0.00305,-8.845
229.101,0.00315,-8.845
229.2,0.0031,-8.845
229.3,0.00275,-8.845
229.4,0.00305,-8.84
229.501,0.0031,-8.835
229.6,0.0031,-8.84
229.701,0.0031,-8.84
229.801,0.0031,-8.84
229.901,0.00305,-8.845
230.001,0.003,-8.84
230.101,0.003,-8.84
230.201,0.003,-8.84
230.3,0.003,-8.84
230.4,0.00295,-8.84
230.5,0.00295,-8.84
230.6,0.00295,-8.84
230.7,0.0027,-8.84
230.8,0.0029,-8.835
230.901,0.0032,-8.835
231,0.00295,-8.835
231.101,0.0029,-8.83
231.2,0.0029,-8.83
231.301,0.0029,-8.83
231.401,0.0029,-8.83
231.5,0.0029,-8.83
231.601,0.00285,-8.835
231.7,0.0029,-8.835
231.8,0.0029,-8.835
231.899,0.0027,-8.835
232,0.00285,-8.83
232.1,0.00285,-8.83
232.201,0.00295,-8.83
232.3,0.00285,-8.835
232.401,0.00285,-8.83
232.5,0.00285,-8.83
232.601,0.0028,-8.83
232.7,0.00285,-8.83
232.801,0.00285,-8.825
232.9,0.00275,-8.825
233,0.0028,-8.825
233.101,0.0028,-8.825
233.2,0.0028,-8.825
233.3,0.00275,-8.825
233.401,0.00275,-8.82
233.5,0.0028,-8.82
233.6,0.00275,-8.82
233.7,0.0027,-8.82
233.8,0.0027,-8.825
233.9,0.0027,-8.825
234.001,0.0027,-8.82
234.1,0.00275,-8.82
234.201,0.0027,-8.82
234.301,0.0027,-8.82
234.4,0.0027,-8.82
234.5,0.0027,-8.82
234.601,0.0027,-8.82
234.7,0.00265,-8.82
234.8,0.00265,-8.815
234.901,0.00265,-8.82
235,0.00265,-8.82
235.1,0.00265,-8.82
235.2,0.00265,-8.82
235.301,0.0027,-8.815
235.401,0.00265,-8.815
235.5,0.0026,-8.82
235.6,0.00265,-8.82
235.7,0.00265,-8.82
235.801,0.00265,-8.815
235.9,0.0026,-8.815
236,0.00255,-8.815
236.1,0.0026,-8.815
236.2,0.00255,-8.815
236.299,0.0025,-8.815
236.4,0.0025,-8.815
236.5,0.0026,-8.815
236.6,0.00255,-8.81
236.7,0.0026,-8.815
236.8,0.0026,-8.815
236.9,0.0026,-8.815
237,0.0026,-8.815
237.1,0.00245,-8.815
237.2,0.00255,-8.81
237.3,0.00255,-8.815
237.401,0.00255,-8.81
237.5,0.0025,-8.815
237.601,0.0025,-8.81
237.701,0.00255,-8.81
237.8,0.00255,-8.81
237.9,0.00255,-8.805
238,0.00255,-8.81
238.1,0.0027,-8.805
238.2,0.0025,-8.81
238.3,0.00255,-8.81
238.401,0.0025,-8.81
238.5,0.00235,-8.805
238.6,0.0023,-8.805
238.7,0.0025,-8.805
238.8,0.00245,-8.805
238.901,0.00245,-8.805
239,0.00245,-8.805
239.101,0.0025,-8.805
239.201,0.00245,-8.8
239.3,0.0023,-8.805
239.401,0.00245,-8.805
239.5,0.00245,-8.805
239.601,0.00245,-8.805
239.7,0.00245,-8.8
239.8,0.00245,-8.8
239.9,0.0024,-8.8
240,0.0024,-8.8
240.1,0.0024,-8.805
240.201,0.0024,-8.805
240.3,0.0024,-8.8
240.4,0.0024,-8.8
240.5,0.0024,-8.8
240.601,0.0024,-8.8
240.7,0.00245,-8.8
240.801,0.0024,-8.8
240.9,0.00245,-8.8
241,0.0022,-8.8
241.099,0.0022,-8.795
241.2,0.00215,-8.795
241.3,0.00215,-8.795
241.4,0.0024,-8.795
241.5,0.0024,-8.795
241.6,0.0024,-8.795
241.7,0.0024,-8.795
241.8,0.0024,-8.79
241.9,0.00215,-8.79
242,0.0024,-8.79
242.1,0.0024,-8.79
242.2,0.00235,-8.795
242.3,0.0024,-8.79
242.4,0.0024,-8.79
242.5,0.0024,-8.79
242.6,0.00235,-8.79
242.7,0.00235,-8.785
242.801,0.0023,-8.785
242.9,0.00235,-8.785
243.001,0.00235,-8.78
243.101,0.00235,-8.78
243.2,0.00235,-8.78
243.3,0.00235,-8.785
243.4,0.00235,-8.785
243.5,0.00235,-8.785
243.6,0.00235,-8.785
243.701,0.00225,-8.785
243.8,0.00235,-8.785
243.9,0.0024,-8.785
244,0.00235,-8.79
244.101,0.00235,-8.79
244.2,0.00235,-8.785
244.3,0.00235,-8.785
244.401,0.0022,-8.78
244.501,0.0024,-8.78
244.6,0.0023,-8.78
244.7,0.0023,-8.78
244.8,0.00225,-8.78
244.9,0.0023,-8.78
245,0.0023,-8.78
245.101,0.0022,-8.78
245.2,0.00225,-8.78
245.301,0.0022,-8.78
245.401,0.00225,-8.78
245.5,0.0022,-8.78
245.6,0.0022,-8.78
245.7,0.0022,-8.78
245.801,0.00225,-8.78
245.9,0.002,-8.78
246,0.0022,-8.78
246.101,0.0022,-8.78
246.2,0.00215,-8.78
246.3,0.0022,-8.775
246.4,0.0022,-8.775
246.5,0.0022,-8.775
246.6,0.0022,-8.775
246.701,0.00215,-8.775
246.801,0.00215,-8.775
246.9,0.00205,-8.78
247,0.00225,-8.775
247.101,0.00225,-8.775
247.2,0.002,-8.775
247.301,0.00215,-8.775
247.4,0.00215,-8.775
247.5,0.00215,-8.775
247.6,0.00215,-8.775
247.701,0.0021,-8.775
247.8,0.00215,-8.775
247.901,0.0021,-8.775
248,0.00215,-8.775
248.099,0.00195,-8.775
248.2,0.0021,-8.775
248.301,0.0021,-8.775
248.4,0.00215,-8.77
248.5,0.00215,-8.77
248.6,0.0021,-8.775
248.701,0.0021,-8.775
248.8,0.00195,-8.775
248.901,0.0021,-8.77
249.001,0.00215,-8.77
249.1,0.0021,-8.77
249.2,0.0021,-8.77
249.301,0.0021,-8.775
249.4,0.0021,-8.77
249.5,0.00215,-8.765
249.601,0.00215,-8.765
249.7,0.00205,-8.76
249.801,0.0021,-8.765
249.9,0.00205,-8.765
250,0.0021,-8.765
250.1,0.00205,-8.765
250.201,0.0021,-8.765
250.301,0.0021,-8.765
250.4,0.00205,-8.765
250.5,0.0021,-8.76
250.6,0.0021,-8.76
250.7,0.00205,-8.765
250.801,0.0021,-8.765
250.9,0.0019,-8.765
251.001,0.0021,-8.765
251.1,0.00215,-8.76
251.2,0.00215,-8.765
251.3,0.00215,-8.765
251.401,0.00215,-8.765
251.5,0.0021,-8.76
251.601,0.00205,-8.76
251.7,0.00215,-8.76
251.8,0.00215,-8.76
251.9,0.00215,-8.765
252,0.0021,-8.76
252.1,0.0021,-8.76
252.2,0.0021,-8.76
252.301,0.002,-8.76
252.401,0.0021,-8.76
252.5,0.0021,-8.76
252.6,0.0021,-8.76
252.7,0.0021,-8.76
252.8,0.0021,-8.76
252.9,0.0021,-8.76
253.001,0.00195,-8.76
253.1,0.0021,-8.76
253.201,0.0021,-8.76
253.3,0.0018,-8.76
253.4,0.0021,-8.76
253.5,0.0021,-8.76
253.6,0.00205,-8.76
253.701,0.00205,-8.76
253.801,0.00205,-8.76
253.901,0.00205,-8.76
254,0.002,-8.76
254.101,0.00205,-8.76
254.201,0.002,-8.755
254.3,0.00205,-8.755
254.4,0.002,-8.755
254.501,0.002,-8.755
254.6,0.002,-8.755
254.7,0.00195,-8.76
254.8,0.002,-8.76
254.9,0.002,-8.76
255,0.00195,-8.755
255.1,0.00175,-8.76
255.2,0.00195,-8.755
255.301,0.00195,-8.76
255.4,0.002,-8.755
255.501,0.002,-8.755
255.601,0.00195,-8.755
255.701,0.0018,-8.755
255.8,0.002,-8.755
255.9,0.00195,-8.755
256.001,0.00195,-8.755
256.1,0.00195,-8.755
256.2,0.00195,-8.75
256.301,0.0019,-8.755
256.401,0.0019,-8.75
256.5,0.0019,-8.755
256.6,0.0019,-8.755
256.7,0.00185,-8.755
256.801,0.00195,-8.755
256.9,0.0019,-8.755
257,0.00185,-8.75
257.101,0.0019,-8.75
257.2,0.00185,-8.755
257.3,0.00185,-8.75
257.4,0.00185,-8.75
257.5,0.00175,-8.75
257.6,0.00175,-8.75
257.7,0.0018,-8.745
257.8,0.0018,-8.745
257.9,0.0018,-8.75
258.001,0.00175,-8.75
258.1,0.00175,-8.75
258.2,0.0017,-8.75
258.3,0.00175,-8.745
258.4,0.0017,-8.745
258.5,0.00165,-8.745
258.601,0.00165,-8.75
258.7,0.00165,-8.75
258.801,0.00165,-8.75
258.901,0.00155,-8.75
259,0.0016,-8.75
259.1,0.0014,-8.745
259.201,0.0015,-8.745
259.301,0.0015,-8.75
259.401,0.00145,-8.75
259.5,0.0014,-8.75
259.6,0.0014,-8.745
259.7,0.0014,-8.745
259.8,0.00135,-8.75
259.901,0.0013,-8.75
260,0.00135,-8.75
260.101,0.0013,-8.75
260.2,0.0013,-8.745
260.3,0.0013,-8.745
260.401,0.00125,-8.74
260.501,0.00125,-8.745
260.6,0.0012,-8.745
260.701,0.00125,-8.745
260.8,0.00125,-8.74
260.9,0.0012,-8.74
261,0.0012,-8.74
261.1,0.00115,-8.74
261.201,0.00115,-8.735
261.301,0.00115,-8.735
261.401,0.0011,-8.735
261.5,0.0011,-8.735
261.6,0.0011,-8.735
261.701,0.0011,-8.73
261.801,0.00105,-8.735
261.9,0.001,-8.735
262.001,0.00105,-8.735
262.1,0.00105,-8.735
262.2,0.00095,-8.735
262.301,0.001,-8.735
262.401,0.0009,-8.735
262.5,0.0009,-8.735
262.602,0.00095,-8.735
262.701,0.0009,-8.74
262.8,0.0009,-8.735
262.9,0.00085,-8.735
263,0.00065,-8.735
263.1,0.00075,-8.74
263.2,0.00055,-8.74
263.3,0.00055,-8.74
263.4,0.0006,-8.735
263.501,0.00055,-8.735
263.6,0.00045,-8.73
263.7,0.00055,-8.73
263.801,0.0005,-8.73
263.9,0.00015,-8.73
264.001,0.00015,-8.73
264.1,0.0001,-8.73
264.201,0.00025,-8.73
264.3,0,-8.73
264.402,5E-05,-8.725
264.501,0,-8.725
264.6,-0.0003,-8.73
264.7,-0.0003,-8.73
264.8,-0.0004,-8.73
264.901,-0.0002,-8.725
265,-0.0006,-8.725
265.101,-0.00045,-8.725
265.2,-0.0008,-8.73
265.301,-0.0009,-8.73
265.4,-0.00105,-8.73
265.5,-0.0011,-8.73
265.6,-0.00125,-8.73
265.701,-0.00115,-8.73
265.8,-0.00165,-8.73
265.9,-0.00155,-8.73
266,-0.00165,-8.73
266.101,-0.0015,-8.725
266.2,-0.0017,-8.725
266.301,-0.0014,-8.725
266.401,-0.00115,-8.725
266.501,-0.00085,-8.73
266.6,-0.0007,-8.73
266.701,-0.0004,-8.73
266.8,0,-8.725
266.899,0.0002,-8.725
267,0.00065,-8.725
267.1,0.00135,-8.725
267.201,0.0021,-8.725
267.301,0.0025,-8.725
267.401,0.00255,-8.725
267.5,0.0026,-8.725
267.6,0.00255,-8.72
267.7,0.0025,-8.72
267.799,0.0023,-8.72
267.9,0.00235,-8.72
268,0.00265,-8.72
268.1,0.00255,-8.72
268.199,0.0025,-8.715
268.3,0.00275,-8.715
268.401,0.0029,-8.71
268.5,0.0031,-8.705
268.601,0.00355,-8.705
268.7,0.0043,-8.7
268.8,0.0074,-7.54
268.9,0.0105,-3.585
269,0.01735,-1.065
269.1,0.03075,
269.199,0.03595,
269.3,0.0448,
269.399,0.0491,-0.04065
269.5,0.0572,-0.0447
269.601,0.06165,-0.0663
269.701,0.06585,-0.0654
269.8,0.07205,
269.899,0.07395,-0.0604
270,0.08055,-0.05355
270.1,0.08365,-0.0324
270.2,0.0874,-0.03055
270.301,0.09025,-0.0159
270.4,0.0938,-0.01405
270.501,0.097,-0.02175
270.6,,-0.0119
270.701,0.10125,-0.03005
270.801,0.10335,-0.01465
270.9,0.10605,-0.01335
271.001,0.11145,-0.015
271.1,0.12735,-0.01925
271.201,0.1782,-0.0324
271.301,0.19605,-0.046
271.4,0.1971,-0.01315
271.5,0.19755,-0.01815
271.6,0.19695,-0.0131
271.7,0.1995,-0.0564
271.801,0.1938,-0.03355
271.9,0.19935,-0.0143
272,0.19815,0.00495
272.1,0.19965,-0.0145
272.2,0.20025,-0.0141
272.3,0.20055,-0.0145
272.4,0.20025,-0.04325
272.5,0.2016,-0.0124
272.601,0.20235,-0.01835
272.7,0.20235,-0.0219
272.8,0.2019,-0.0189
272.901,0.19875,-0.04095
273,0.20025,-0.0061
273.1,0.2013,-0.0235
273.201,0.20175,-0.02435
273.3,0.2013,-0.02185
273.4,0.20115,-0.0246
273.501,0.1989,-0.0405
273.6,0.20085,-0.0255
273.7,0.2013,-0.0227
273.8,0.20145,-0.02515
273.9,0.19935,-0.0398
274,0.2013,-0.02805
274.099,0.1992,-0.01025
274.201,0.2013,-0.02445
274.3,0.201,-0.0273
274.401,0.1992,-0.0401
274.5,0.20055,-0.02755
274.6,0.2004,-0.02885
274.7,0.19995,-0.02875
274.801,0.19995,-0.0287
274.9,0.1992,-0.01305
275,0.1995,-0.0296
275.1,0.19935,-0.0316
275.201,0.1986,-0.04255
275.3,0.19875,-0.0301
275.4,0.19845,-0.0302
275.5,0.1986,-0.03025
275.6,0.1986,-0.0308
275.701,0.1989,-0.04445
275.8,0.19815,-0.0327
275.901,0.1989,-0.0437
276,0.1983,-0.034
276.1,0.1983,-0.03345
276.201,0.1989,-0.04535
276.299,0.1989,-0.0196
276.4,0.19815,-0.03475
276.5,0.198,-0.03525
276.6,0.1977,-0.0347
276.701,0.1983,-0.04485
276.801,0.1977,-0.03595
276.899,0.19905,-0.02225
277,0.1977,-0.03575
277.1,0.19785,-0.03575
277.2,0.1977,-0.037
277.299,0.1992,-0.0241
277.399,0.19905,-0.02435
277.5,0.1989,-0.02575
277.6,0.19905,-0.02575
277.7,0.19785,-0.03715
